timestamp,orientation_x,orientation_y,orientation_z,orientation_w,angular_vel_x,angular_vel_y,angular_vel_z,linear_acc_x,linear_acc_y,linear_acc_z
1742312577.9369323,-0.95657825,0.0026993565,-0.006879295,0.29138196,-0.025566343,-0.010652643,-0.0021305287,-0.050278235,-0.16280572,9.53012
1742312577.9384713,-0.9565745,0.002710647,-0.00687826,0.29139417,-0.023435814,-0.02237055,-0.018109493,-0.050278235,-0.16280572,9.53012
1742312577.940528,-0.95657325,0.0027186128,-0.0068902373,0.2913979,-0.040480044,-0.0074568503,0.0,-0.050278235,-0.16280572,9.53012
1742312577.9427638,-0.956573,0.002727783,-0.0068799336,0.29139882,-0.02450108,-0.033023193,-0.003195793,-0.09935937,-0.1448492,9.536105
1742312577.944718,-0.9565741,0.0027283216,-0.0068778126,0.29139528,-0.019174758,-0.013848436,0.010652643,-0.09935937,-0.1448492,9.536105
1742312577.94694,-0.9565736,0.0027164426,-0.0068689296,0.29139724,-0.0053263213,-0.027696872,-0.0042610574,-0.0035913025,-0.16639702,9.44752
1742312577.9488556,-0.9565725,0.0027139573,-0.0068642185,0.2914013,-0.0074568503,-0.025566343,-0.011717907,-0.0035913025,-0.16639702,9.44752
1742312577.9507024,-0.9565743,0.0027139394,-0.0068625817,0.29139516,-0.013848436,-0.021305285,0.009587379,-0.0035913025,-0.16639702,9.44752
1742312577.9525151,-0.95657414,0.0026999721,-0.0068477397,0.29139608,-0.0010652643,-0.021305285,0.0,0.025139118,-0.1352724,9.561244
1742312577.9546678,-0.956576,0.0027004501,-0.006838409,0.29139042,-0.018109493,-0.028762136,0.0074568503,0.025139118,-0.1352724,9.561244
1742312577.9566438,-0.9565766,0.0027060304,-0.0068381,0.2913884,-0.025566343,-0.021305285,0.0010652643,0.0047884034,-0.14724341,9.51336
1742312577.9584055,-0.95658046,0.002705495,-0.0068391333,0.29137573,-0.011717907,-0.013848436,0.013848436,0.0047884034,-0.14724341,9.51336
1742312577.9606519,-0.95658094,0.002698425,-0.006832216,0.29137412,-0.0074568503,-0.019174758,-0.0053263213,0.015562311,-0.07062895,9.520543
1742312577.9625094,-0.956582,0.0026964617,-0.0068368157,0.2913707,-0.013848436,-0.003195793,-0.006391586,0.015562311,-0.07062895,9.520543
1742312577.9645104,-0.956583,0.0027053275,-0.006825149,0.29136753,-0.031957928,-0.030892665,0.003195793,0.015562311,-0.07062895,9.520543
1742312577.9664547,-0.95658207,0.00270715,-0.0068274173,0.29137063,-0.015978964,-0.0053263213,-0.0074568503,-0.007182605,-0.1400608,9.55047
1742312577.9684894,-0.95658314,0.002699518,-0.006826374,0.2913671,-0.0010652643,-0.012783172,0.0042610574,-0.007182605,-0.1400608,9.55047
1742312577.9704695,-0.95658255,0.0026960962,-0.0068282117,0.2913692,-0.011717907,-0.02237055,-0.0010652643,0.010773907,-0.16879122,9.461885
1742312577.972472,-0.95658475,0.0026976126,-0.0068383194,0.29136172,-0.018109493,-0.0053263213,0.006391586,0.010773907,-0.16879122,9.461885
1742312577.9744923,-0.9565849,0.0027009046,-0.0068466044,0.29136086,-0.012783172,-0.013848436,-0.006391586,0.010773907,-0.16879122,9.461885
1742312577.9764068,-0.95658445,0.0027061189,-0.0068414435,0.29136235,-0.01704423,-0.01704423,-0.0074568503,0.025139118,-0.15562311,9.569624
1742312577.9786112,-0.9565856,0.0027051019,-0.0068276958,0.2913592,-0.015978964,-0.025566343,0.008522115,0.025139118,-0.15562311,9.569624
1742312577.9804866,-0.95658696,0.0027017319,-0.0068366276,0.29135427,-0.010652643,0.0021305287,0.0053263213,-0.016759412,-0.20829555,9.540894
1742312577.9826684,-0.9565881,0.0026881802,-0.006848678,0.29135036,-0.008522115,-0.008522115,0.0010652643,-0.016759412,-0.20829555,9.540894
1742312577.9844887,-0.95658946,0.0026794332,-0.0068583903,0.29134592,-0.009587379,-0.0042610574,0.0042610574,-0.016759412,-0.20829555,9.540894
1742312577.986633,-0.9565899,0.0026817266,-0.006857613,0.2913444,-0.0149137005,-0.018109493,0.0,-0.02873042,-0.17717093,9.4295635
1742312577.988791,-0.9565918,0.002679781,-0.0068562715,0.29133832,-0.012783172,-0.020240022,0.0,-0.02873042,-0.17717093,9.4295635
1742312577.9906182,-0.9565911,0.002676888,-0.0068556922,0.2913404,-0.0074568503,-0.019174758,-0.010652643,0.0023942017,-0.055066638,9.561244
1742312577.992923,-0.9565907,0.0026774076,-0.00684051,0.29134232,-0.011717907,-0.025566343,-0.0042610574,0.0023942017,-0.055066638,9.561244
1742312577.9947054,-0.95659167,0.002680131,-0.006851645,0.29133892,-0.02237055,-0.0010652643,0.006391586,0.0023942017,-0.055066638,9.561244
1742312577.9968371,-0.9565912,0.0026845762,-0.0068599805,0.29134005,-0.023435814,-0.019174758,-0.0053263213,-0.035913024,-0.25977087,9.591172
1742312577.9985006,-0.95659053,0.00268322,-0.0068632998,0.29134217,-0.015978964,-0.011717907,0.0042610574,-0.035913024,-0.25977087,9.591172
1742312578.0006306,-0.9565913,0.0026835534,-0.0068639936,0.29133967,-0.012783172,-0.003195793,0.0,-0.08020575,-0.19033903,9.374496
1742312578.0025098,-0.9565897,0.0026810463,-0.006866745,0.29134482,-0.0074568503,-0.018109493,-0.009587379,-0.08020575,-0.19033903,9.374496
1742312578.004634,-0.9565887,0.0026855702,-0.0068685254,0.29134792,-0.018109493,-0.023435814,-0.0053263213,-0.08020575,-0.19033903,9.374496
1742312578.0065198,-0.9565877,0.0026876098,-0.006876696,0.2913511,-0.0149137005,-0.006391586,-0.0042610574,-0.0011971008,-0.19033903,9.560047
1742312578.008727,-0.95658714,0.0026867182,-0.0068671308,0.29135308,0.0010652643,-0.03941478,-0.009587379,-0.0011971008,-0.19033903,9.560047
1742312578.01065,-0.95658666,0.0026979374,-0.006852828,0.29135498,-0.011717907,-0.029827401,-0.0042610574,-0.039504327,-0.25857377,9.502586
1742312578.0125926,-0.956586,0.0026955076,-0.006855026,0.29135707,-0.01704423,-0.015978964,-0.0021305287,-0.039504327,-0.25857377,9.502586
1742312578.0146322,-0.9565834,0.0026928065,-0.00685876,0.29136583,-0.006391586,-0.008522115,-0.010652643,-0.039504327,-0.25857377,9.502586
1742312578.0167453,-0.95658135,0.002681987,-0.0068540326,0.29137245,0.0010652643,-0.019174758,-0.010652643,-0.062249243,-0.1592144,9.483433
1742312578.0186257,-0.9565813,0.0026735533,-0.0068518976,0.29137295,-0.008522115,-0.013848436,0.0010652643,-0.062249243,-0.1592144,9.483433
1742312578.0207746,-0.9565783,0.0026813825,-0.0068502454,0.29138264,-0.019174758,-0.021305285,-0.0149137005,-0.08379706,-0.08259996,9.581595
1742312578.022679,-0.956576,0.0026785445,-0.006851099,0.29139033,-0.0053263213,-0.0042610574,-0.006391586,-0.08379706,-0.08259996,9.581595
1742312578.0246315,-0.9565747,0.00267982,-0.0068684146,0.29139408,-0.019174758,0.0010652643,-0.010652643,-0.08379706,-0.08259996,9.581595
1742312578.0268075,-0.95657337,0.0026933295,-0.0068638227,0.29139864,-0.026631609,-0.031957928,-0.0053263213,-0.050278235,-0.17357962,9.5971575
1742312578.0286632,-0.95657593,0.002705802,-0.0068612923,0.29139,-0.033023193,-0.029827401,0.010652643,-0.050278235,-0.17357962,9.5971575
1742312578.0306447,-0.95657504,0.0027147345,-0.0068648034,0.2913926,-0.02450108,-0.026631609,-0.009587379,-0.110133275,-0.1340753,9.441534
1742312578.0327973,-0.95657355,0.002721973,-0.006860743,0.29139763,-0.028762136,-0.018109493,0.0,-0.110133275,-0.1340753,9.441534
1742312578.0346878,-0.95657545,0.0027213385,-0.0068606837,0.29139155,-0.012783172,-0.023435814,0.0053263213,-0.05865794,-0.17836803,9.519346
1742312578.0367293,-0.956574,0.0027171404,-0.0068615545,0.29139617,-0.009587379,-0.0149137005,-0.015978964,-0.05865794,-0.17836803,9.519346
1742312578.0387456,-0.95657426,0.0027164568,-0.0068640755,0.2913952,-0.013848436,-0.0149137005,-0.0042610574,-0.05865794,-0.17836803,9.519346
1742312578.0407948,-0.95657605,0.0027134602,-0.0068578734,0.29138955,-0.008522115,-0.030892665,0.006391586,0.019153614,-0.1604115,9.516952
1742312578.0426824,-0.95657694,0.0027085328,-0.006845163,0.2913869,-0.013848436,-0.031957928,-0.0010652643,0.019153614,-0.1604115,9.516952
1742312578.044727,-0.95657617,0.0027108248,-0.0068432973,0.29138944,-0.006391586,-0.025566343,-0.010652643,-0.03232172,-0.1364695,9.519346
1742312578.046632,-0.95657706,0.002713209,-0.0068482175,0.2913865,-0.025566343,-0.01704423,0.0042610574,-0.03232172,-0.1364695,9.519346
1742312578.0484235,-0.9565791,0.0027248499,-0.006842645,0.2913798,-0.023435814,-0.028762136,0.011717907,-0.03232172,-0.1364695,9.519346
1742312578.0506303,-0.9565817,0.0027242866,-0.006846096,0.29137123,-0.012783172,-0.011717907,0.0010652643,-0.0023942017,-0.15801731,9.540894
1742312578.0525467,-0.95658183,0.0027265395,-0.006845729,0.29137075,-0.013848436,-0.01704423,0.006391586,-0.0023942017,-0.15801731,9.540894
1742312578.0549147,-0.956581,0.002739689,-0.00684411,0.2913733,-0.038349517,-0.01704423,-0.0042610574,-0.01316811,-0.09696517,9.552865
1742312578.0568259,-0.95658296,0.0027564908,-0.00684816,0.2913668,-0.030892665,-0.009587379,0.010652643,-0.01316811,-0.09696517,9.552865
1742312578.058472,-0.956587,0.0027578666,-0.006854825,0.29135314,-0.02237055,-0.009587379,0.009587379,-0.01316811,-0.09696517,9.552865
1742312578.0606124,-0.95659,0.002754886,-0.006856236,0.29134348,-0.010652643,-0.01704423,0.008522115,-0.027533319,-0.20231004,9.481039
1742312578.062547,-0.9565932,0.0027534205,-0.006855375,0.2913328,-0.020240022,-0.018109493,0.0074568503,-0.027533319,-0.20231004,9.481039
1742312578.0646813,-0.9565942,0.0027562457,-0.006862695,0.29132935,-0.02450108,-0.0053263213,0.0042610574,-0.027533319,-0.20231004,9.481039
1742312578.06646,-0.9565953,0.0027536398,-0.006849709,0.2913262,-0.008522115,-0.029827401,-0.012783172,0.025139118,-0.16519992,9.545682
1742312578.0685737,-0.95659465,0.002753049,-0.006851916,0.2913283,-0.025566343,-0.018109493,-0.0042610574,0.025139118,-0.16519992,9.545682
1742312578.0704327,-0.9565954,0.0027564457,-0.0068509495,0.2913258,-0.013848436,-0.006391586,0.0,-0.01316811,-0.22984336,9.609129
1742312578.0735822,-0.95659643,0.0027550822,-0.0068535963,0.2913223,-0.010652643,-0.009587379,0.0042610574,-0.01316811,-0.22984336,9.609129
1742312578.0750682,-0.9566008,0.0027544706,-0.006865587,0.29130772,-0.01704423,-0.0074568503,0.0149137005,-0.034715924,-0.23343466,9.399636
1742312578.0771475,-0.95660484,0.0027527113,-0.006867295,0.29129452,-0.0042610574,-0.013848436,0.009587379,-0.034715924,-0.23343466,9.399636
1742312578.079111,-0.9566042,0.0027467366,-0.006877621,0.29129618,-0.0149137005,-0.0074568503,-0.0042610574,-0.034715924,-0.23343466,9.399636
1742312578.0808954,-0.95660514,0.002742851,-0.0068768137,0.29129314,-0.0042610574,-0.026631609,-0.0053263213,0.031124622,-0.1316811,9.548077
1742312578.0828037,-0.956604,0.0027417948,-0.006869358,0.2912972,-0.010652643,-0.026631609,-0.011717907,0.031124622,-0.1316811,9.548077
1742312578.0844662,-0.9566037,0.0027373289,-0.00687641,0.29129833,-0.012783172,-0.008522115,-0.0010652643,-0.021547815,-0.22505496,9.611523
1742312578.086458,-0.9566045,0.002739435,-0.006884495,0.2912954,-0.02450108,-0.01704423,0.0010652643,-0.021547815,-0.22505496,9.611523
1742312578.0885084,-0.956604,0.0027463066,-0.006877342,0.2912969,-0.029827401,-0.023435814,-0.0021305287,-0.021547815,-0.22505496,9.611523
1742312578.0912066,-0.95660466,0.002748095,-0.0068923812,0.29129454,-0.019174758,-0.0074568503,0.0,-0.09696517,-0.17956513,9.434352
1742312578.0927248,-0.95660603,0.0027529176,-0.006893657,0.29129001,-0.021305285,-0.013848436,0.003195793,-0.09696517,-0.17956513,9.434352
1742312578.095135,-0.9566046,0.0027529916,-0.006890187,0.2912946,-0.010652643,-0.02237055,-0.0053263213,-0.01436521,-0.19871874,9.544485
1742312578.0971773,-0.9566046,0.0027493087,-0.0068931724,0.29129466,0.003195793,-0.019174758,-0.003195793,-0.01436521,-0.19871874,9.544485
1742312578.0988448,-0.9566018,0.0027503693,-0.006892648,0.29130387,-0.015978964,-0.019174758,-0.02237055,-0.01436521,-0.19871874,9.544485
1742312578.1005297,-0.95660007,0.0027386479,-0.006886928,0.29130995,-0.0010652643,-0.013848436,-0.009587379,-0.009576807,-0.2765303,9.5385
1742312578.1025062,-0.956598,0.002733912,-0.006892154,0.29131666,-0.008522115,-0.0074568503,-0.010652643,-0.009576807,-0.2765303,9.5385
1742312578.1046603,-0.9565985,0.0027349622,-0.0068992204,0.29131475,-0.01704423,-0.012783172,-0.0021305287,-0.03232172,-0.22146365,9.504981
1742312578.106489,-0.95659715,0.0027256124,-0.006896382,0.29131934,-0.009587379,-0.025566343,-0.0053263213,-0.03232172,-0.22146365,9.504981
1742312578.1086855,-0.9565949,0.0027203169,-0.0068947687,0.291327,-0.0149137005,-0.010652643,-0.0149137005,-0.03232172,-0.22146365,9.504981
1742312578.1108701,-0.9565902,0.0027084332,-0.0068806116,0.29134268,0.0053263213,-0.025566343,-0.027696872,-0.073023155,-0.11731588,9.536105
1742312578.112878,-0.95658946,0.0027019875,-0.0068896245,0.29134485,-0.009587379,-0.013848436,-0.006391586,-0.073023155,-0.11731588,9.536105
1742312578.1149554,-0.95658773,0.0027011049,-0.006888688,0.29135048,-0.012783172,-0.018109493,-0.010652643,-0.04309563,-0.18674773,9.519346
1742312578.1166909,-0.9565871,0.0027052995,-0.006887661,0.29135302,-0.02450108,-0.015978964,0.0010652643,-0.04309563,-0.18674773,9.519346
1742312578.1187818,-0.9565874,0.0027051284,-0.0068864604,0.29135203,-0.020240022,-0.013848436,-0.0042610574,-0.04309563,-0.18674773,9.519346
1742312578.1207204,-0.95658886,0.002708064,-0.0068842787,0.2913469,-0.018109493,-0.028762136,0.0074568503,-0.12210429,-0.18315643,9.544485
1742312578.1225812,-0.9565854,0.0027095557,-0.0068755783,0.29135856,-0.0053263213,-0.028762136,-0.013848436,-0.12210429,-0.18315643,9.544485
1742312578.1247194,-0.9565856,0.0027101925,-0.006874434,0.29135805,-0.0149137005,-0.021305285,-0.0021305287,-0.12210429,-0.18315643,9.544485
1742312578.1266334,-0.9565862,0.0027111513,-0.006875636,0.2913561,-0.011717907,-0.013848436,-0.006391586,-0.061052144,-0.076614454,9.51336
1742312578.1287794,-0.95658386,0.0027126337,-0.006873622,0.29136372,-0.02237055,-0.023435814,-0.018109493,0.02873042,-0.16879122,9.548077
1742312578.130735,-0.9565822,0.0027066655,-0.0068689734,0.2913693,-0.023435814,-0.020240022,-0.011717907,0.02873042,-0.16879122,9.548077
1742312578.1326778,-0.95658046,0.00270322,-0.006870896,0.29137495,-0.011717907,-0.018109493,-0.013848436,0.02873042,-0.16879122,9.548077
1742312578.1348112,-0.9565799,0.0027054108,-0.006861652,0.29137692,-0.0149137005,-0.026631609,-0.003195793,-0.011971008,-0.14724341,9.532514
1742312578.1367211,-0.9565839,0.002713736,-0.006861663,0.2913637,-0.020240022,-0.02450108,0.0053263213,-0.011971008,-0.14724341,9.532514
1742312578.1387422,-0.9565868,0.0027191488,-0.0068545155,0.29135448,-0.0149137005,-0.030892665,0.008522115,0.025139118,-0.11492168,9.528923
1742312578.14084,-0.956587,0.0027186677,-0.0068441536,0.2913539,-0.009587379,-0.01704423,-0.0042610574,0.025139118,-0.11492168,9.528923
1742312578.1424778,-0.9565884,0.002712516,-0.006844775,0.29134938,0.0,-0.019174758,0.006391586,0.025139118,-0.11492168,9.528923
1742312578.144635,-0.95658857,0.0027136481,-0.0068268636,0.2913492,-0.012783172,-0.030892665,-0.003195793,0.01436521,-0.1412579,9.504981
1742312578.1466389,-0.9565895,0.0027196393,-0.006838815,0.2913458,-0.029827401,-0.021305285,0.0,0.01436521,-0.1412579,9.504981
1742312578.1484826,-0.95659137,0.0027158174,-0.0068338905,0.2913397,-0.011717907,-0.020240022,0.0053263213,-0.02873042,-0.19273324,9.51336
1742312578.1508214,-0.95659626,0.002724345,-0.006844133,0.29132354,-0.027696872,-0.010652643,0.018109493,-0.02873042,-0.19273324,9.51336
1742312578.1525962,-0.95660007,0.0027253767,-0.00684658,0.29131085,-0.008522115,-0.003195793,0.010652643,-0.02873042,-0.19273324,9.51336
1742312578.1548276,-0.9566018,0.0027273956,-0.006856213,0.29130492,-0.019174758,-0.0010652643,0.003195793,0.079008654,-0.10534488,9.391256
1742312578.1567123,-0.95660454,0.002728248,-0.0068434956,0.29129612,-0.013848436,-0.023435814,0.008522115,0.079008654,-0.10534488,9.391256
1742312578.1586013,-0.95660603,0.0027162763,-0.006837744,0.29129153,0.0042610574,-0.023435814,0.0010652643,0.037110128,-0.15562311,9.589975
1742312578.1609535,-0.9566068,0.0027188442,-0.006824656,0.29128942,-0.019174758,-0.027696872,-0.006391586,0.037110128,-0.15562311,9.589975
1742312578.1627722,-0.95660555,0.0027246918,-0.0068319445,0.2912931,-0.019174758,-0.0042610574,-0.009587379,0.037110128,-0.15562311,9.589975
1742312578.1648796,-0.9566069,0.0027273563,-0.0068384977,0.29128864,-0.019174758,-0.0149137005,0.003195793,-0.009576807,-0.2837129,9.526528
1742312578.1666207,-0.95660836,0.0027219476,-0.006836612,0.29128408,-0.013848436,-0.02450108,0.006391586,-0.009576807,-0.2837129,9.526528
1742312578.1684468,-0.95660836,0.0027256834,-0.006843661,0.29128373,-0.02237055,-0.010652643,0.0021305287,0.020350715,-0.093373865,9.475053
1742312578.17088,-0.9566089,0.0027273518,-0.006837821,0.29128218,-0.011717907,-0.038349517,-0.0021305287,0.020350715,-0.093373865,9.475053
1742312578.1724644,-0.9566101,0.0027312774,-0.0068399254,0.29127815,-0.01704423,-0.010652643,0.0,0.020350715,-0.093373865,9.475053
1742312578.174478,-0.95661,0.0027267253,-0.0068438496,0.29127827,-0.010652643,-0.012783172,-0.0074568503,0.01436521,-0.15083471,9.659407
1742312578.1764848,-0.95660967,0.0027360772,-0.006845876,0.29127935,-0.021305285,-0.0149137005,-0.0053263213,0.01436521,-0.15083471,9.659407
1742312578.1792524,-0.95661056,0.0027358292,-0.006852342,0.29127643,-0.013848436,-0.015978964,-0.0010652643,-0.04070143,-0.25378537,9.503783
1742312578.1810436,-0.9566081,0.002740837,-0.0068554687,0.29128414,-0.01704423,-0.012783172,-0.008522115,-0.04070143,-0.25378537,9.503783
1742312578.1836529,-0.9566076,0.0027411939,-0.006858559,0.29128572,-0.011717907,-0.0149137005,-0.012783172,-0.04070143,-0.25378537,9.503783
1742312578.1855555,-0.9566067,0.0027379554,-0.0068551376,0.2912888,-0.006391586,-0.019174758,-0.012783172,-0.049081136,-0.17118542,9.528923
1742312578.1879907,-0.9566065,0.002740405,-0.0068547474,0.29128933,-0.019174758,-0.019174758,-0.006391586,-0.049081136,-0.17118542,9.528923
1742312578.188547,-0.9566043,0.002729572,-0.006864788,0.2912966,-0.0053263213,-0.008522115,-0.013848436,-0.025139118,-0.18914193,9.576807
1742312578.190976,-0.9566025,0.00272633,-0.0068682525,0.2913023,-0.011717907,-0.012783172,-0.0053263213,-0.025139118,-0.18914193,9.576807
1742312578.1924565,-0.9565994,0.002729542,-0.006866938,0.29131252,-0.0149137005,-0.02450108,-0.008522115,-0.025139118,-0.18914193,9.576807
1742312578.1947439,-0.9565983,0.0027297665,-0.0068665203,0.2913161,-0.012783172,-0.021305285,-0.0053263213,-0.038307227,-0.19752164,9.532514
1742312578.1968367,-0.95659816,0.0027248384,-0.0068789264,0.29131627,-0.013848436,-0.013848436,-0.0021305287,-0.038307227,-0.19752164,9.532514
1742312578.1984692,-0.9565973,0.0027235271,-0.0068750745,0.29131934,-0.009587379,-0.02450108,-0.009587379,-0.1316811,-0.1412579,9.469068
1742312578.2012665,-0.9565956,0.0027328604,-0.006862398,0.2913253,-0.02450108,-0.029827401,-0.010652643,-0.1316811,-0.1412579,9.469068
1742312578.2025983,-0.9565923,0.002733177,-0.0068622753,0.29133606,-0.013848436,-0.021305285,-0.012783172,-0.1316811,-0.1412579,9.469068
1742312578.2046638,-0.95659035,0.0027313307,-0.006848747,0.29134253,-0.011717907,-0.03515372,-0.008522115,-0.049081136,-0.1376666,9.563639
1742312578.2079787,-0.9565875,0.00273656,-0.006853584,0.2913518,-0.02450108,-0.013848436,-0.0074568503,-0.049081136,-0.1376666,9.563639
1742312578.2085707,-0.95658696,0.0027358134,-0.0068523735,0.29135382,-0.012783172,-0.020240022,-0.0074568503,-0.044292733,-0.16759412,9.510966
1742312578.210933,-0.9565833,0.0027431564,-0.0068319924,0.29136586,-0.01704423,-0.040480044,-0.0149137005,-0.044292733,-0.16759412,9.510966
1742312578.2125049,-0.95658386,0.0027472016,-0.0068316786,0.29136434,-0.02237055,-0.021305285,0.0,-0.044292733,-0.16759412,9.510966
1742312578.214927,-0.9565842,0.002752764,-0.0068262876,0.29136327,-0.02237055,-0.031957928,-0.0010652643,-0.088585466,-0.1376666,9.537302
1742312578.216684,-0.9565826,0.002746402,-0.0068248855,0.2913684,-0.012783172,-0.021305285,-0.006391586,-0.088585466,-0.1376666,9.537302
1742312578.2189167,-0.9565851,0.0027493148,-0.0068278224,0.2913603,-0.01704423,-0.020240022,0.0042610574,-0.005985504,-0.1412579,9.514558
1742312578.2211103,-0.9565856,0.0027469695,-0.006834981,0.29135835,-0.0149137005,-0.010652643,-0.0042610574,-0.005985504,-0.1412579,9.514558
1742312578.2225535,-0.95658547,0.0027441536,-0.006836169,0.29135892,-0.011717907,-0.021305285,-0.0074568503,0.035913024,-0.12689269,9.509769
1742312578.225329,-0.95658606,0.0027478642,-0.0068284883,0.2913573,-0.0149137005,-0.030892665,-0.0053263213,0.035913024,-0.12689269,9.509769
1742312578.2267807,-0.95658743,0.0027528433,-0.006823774,0.29135275,-0.008522115,-0.02237055,0.0021305287,0.035913024,-0.12689269,9.509769
1742312578.2285507,-0.95658743,0.0027632546,-0.006837322,0.2913524,-0.03728425,-0.0074568503,-0.0053263213,-0.015562311,-0.107739076,9.5732155
1742312578.2308674,-0.9565911,0.0027656604,-0.006833772,0.29134017,-0.021305285,-0.0149137005,0.003195793,-0.015562311,-0.107739076,9.5732155
1742312578.232535,-0.9565927,0.0027704835,-0.00683155,0.2913351,-0.023435814,-0.02450108,0.0074568503,0.037110128,-0.1376666,9.5385
1742312578.2349186,-0.95659214,0.0027762426,-0.0068306304,0.29133666,-0.021305285,-0.021305285,-0.010652643,0.037110128,-0.1376666,9.5385
1742312578.236666,-0.9565916,0.0027781997,-0.0068295016,0.2913387,-0.018109493,-0.028762136,-0.0053263213,0.037110128,-0.1376666,9.5385
1742312578.2384627,-0.9565931,0.0027808358,-0.0068428195,0.2913333,-0.021305285,-0.0053263213,0.006391586,-0.07062895,-0.1388637,9.572019
1742312578.2411084,-0.9565948,0.0027711398,-0.0068702428,0.29132703,-0.0042610574,-0.0021305287,0.003195793,-0.07062895,-0.1388637,9.572019
1742312578.2426643,-0.9565966,0.0027679421,-0.0068673813,0.2913214,-0.0074568503,-0.021305285,0.008522115,0.023942016,-0.19393034,9.472659
1742312578.2451875,-0.95659953,0.0027642434,-0.006873457,0.29131183,-0.0053263213,-0.0074568503,0.0021305287,0.023942016,-0.19393034,9.472659
1742312578.2472982,-0.9566005,0.002766283,-0.006877696,0.29130834,-0.02237055,-0.015978964,-0.003195793,0.023942016,-0.19393034,9.472659
1742312578.248762,-0.9566024,0.0027759536,-0.0068662167,0.29130214,-0.01704423,-0.031957928,-0.008522115,0.06703765,-0.16160862,9.593566
1742312578.2505631,-0.95660394,0.0027699878,-0.0068658567,0.2912971,-0.011717907,-0.020240022,0.0010652643,0.06703765,-0.16160862,9.593566
1742312578.2548304,-0.95660394,0.002768147,-0.006872132,0.29129723,-0.01704423,-0.013848436,0.0,-0.01436521,-0.19632454,9.519346
1742312578.2565117,-0.9566058,0.0027585914,-0.006870096,0.29129118,-0.012783172,-0.018109493,0.0021305287,-0.01436521,-0.19632454,9.519346
1742312578.2581322,-0.95660686,0.0027556503,-0.006873099,0.29128766,-0.010652643,-0.009587379,0.0042610574,-0.01436521,-0.19632454,9.519346
1742312578.2596624,-0.9566073,0.0027601428,-0.0068578436,0.29128653,-0.006391586,-0.03515372,-0.0042610574,-0.04189853,-0.18315643,9.421184
1742312578.2609942,-0.9566074,0.0027561085,-0.006852414,0.2912865,-0.012783172,-0.019174758,0.0042610574,-0.04189853,-0.18315643,9.421184
1742312578.2624855,-0.9566081,0.0027600713,-0.0068517583,0.291284,-0.0149137005,-0.023435814,0.0,0.021547815,-0.1316811,9.562442
1742312578.2649004,-0.9566063,0.002761785,-0.0068540685,0.29128966,-0.012783172,-0.019174758,-0.008522115,0.021547815,-0.1316811,9.562442
1742312578.266514,-0.9566057,0.002760843,-0.0068555106,0.29129174,-0.019174758,-0.018109493,-0.003195793,0.021547815,-0.1316811,9.562442
1742312578.2690005,-0.9566053,0.0027621577,-0.0068498133,0.29129323,-0.013848436,-0.028762136,-0.006391586,-0.011971008,-0.2777274,9.581595
1742312578.2707303,-0.9566052,0.002755757,-0.006846963,0.29129377,-0.020240022,-0.023435814,0.006391586,-0.011971008,-0.2777274,9.581595
1742312578.2728388,-0.95660555,0.002750259,-0.00685948,0.29129243,-0.006391586,-0.006391586,-0.0021305287,-0.062249243,-0.20829555,9.38168
1742312578.2750611,-0.95660347,0.0027467045,-0.0068582282,0.29129907,-0.0074568503,-0.023435814,-0.012783172,-0.062249243,-0.20829555,9.38168
1742312578.2769253,-0.95660347,0.0027407468,-0.0068503944,0.29129955,-0.0021305287,-0.03408846,-0.0042610574,-0.062249243,-0.20829555,9.38168
1742312578.2791553,-0.9566039,0.0027343351,-0.006856874,0.29129812,-0.0074568503,-0.006391586,-0.0042610574,0.0023942017,-0.20709845,9.556456
1742312578.281083,-0.95660114,0.002729873,-0.006862242,0.2913069,-0.02450108,-0.011717907,-0.0021305287,0.0023942017,-0.20709845,9.556456
1742312578.282585,-0.95660096,0.0027287782,-0.0068532,0.29130784,-0.006391586,-0.03408846,-0.0053263213,-0.011971008,-0.25857377,9.489418
1742312578.2849758,-0.956599,0.0027302871,-0.0068617887,0.2913141,-0.012783172,-0.006391586,-0.009587379,-0.011971008,-0.25857377,9.489418
1742312578.2866411,-0.9565973,0.0027309991,-0.006866237,0.29131928,-0.020240022,-0.011717907,-0.012783172,-0.011971008,-0.25857377,9.489418
1742312578.2889557,-0.9565964,0.0027192777,-0.0068620043,0.29132283,-0.0021305287,-0.020240022,0.003195793,-0.044292733,-0.19991584,9.469068
1742312578.2909415,-0.956595,0.0027197327,-0.0068704886,0.29132703,-0.02450108,0.0,0.0,-0.044292733,-0.19991584,9.469068
1742312578.292795,-0.95659125,0.002712062,-0.006859229,0.2913397,-0.0010652643,-0.025566343,-0.0149137005,-0.06703765,-0.11492168,9.520543
1742312578.2953656,-0.9565899,0.0027075252,-0.006854768,0.29134426,-0.0021305287,-0.027696872,-0.003195793,-0.06703765,-0.11492168,9.520543
1742312578.29779,-0.9565856,0.0027186838,-0.0068511674,0.29135856,-0.018109493,-0.027696872,-0.015978964,-0.05626374,-0.16400282,9.616311
1742312578.2991915,-0.9565844,0.0027240266,-0.006856078,0.29136217,-0.027696872,-0.011717907,-0.010652643,-0.05626374,-0.16400282,9.616311
1742312578.300983,-0.95658416,0.0027352497,-0.0068622874,0.29136276,-0.026631609,-0.0149137005,-0.0021305287,-0.05626374,-0.16400282,9.616311
1742312578.3025224,-0.9565833,0.0027441583,-0.0068595,0.29136533,-0.029827401,-0.023435814,-0.0074568503,-0.10055647,-0.17118542,9.507375
1742312578.3047898,-0.9565824,0.0027471408,-0.0068578925,0.29136837,-0.015978964,-0.015978964,-0.008522115,-0.10055647,-0.17118542,9.507375
1742312578.3070672,-0.9565813,0.0027534473,-0.006856345,0.29137194,-0.019174758,-0.027696872,-0.0074568503,-0.10055647,-0.17118542,9.507375
1742312578.3090997,-0.9565827,0.002745251,-0.006858254,0.2913674,-0.0053263213,-0.013848436,0.0021305287,-0.046686932,-0.1316811,9.552865
1742312578.3122969,-0.9565811,0.002743757,-0.0068431217,0.29137287,-0.011717907,-0.02237055,-0.0021305287,0.029927522,-0.18794483,9.563639
1742312578.313104,-0.9565788,0.0027401773,-0.006845803,0.29138058,-0.009587379,-0.010652643,-0.019174758,0.029927522,-0.18794483,9.563639
1742312578.3158338,-0.95657927,0.0027302876,-0.006844208,0.29137906,-0.0042610574,-0.020240022,-0.0021305287,0.029927522,-0.18794483,9.563639
1742312578.3182943,-0.9565818,0.002725626,-0.0068312753,0.2913713,-0.0021305287,-0.031957928,0.0021305287,-0.017956512,-0.17118542,9.537302
1742312578.3199856,-0.95658416,0.002730235,-0.0068372968,0.29136327,-0.023435814,-0.011717907,0.0021305287,-0.017956512,-0.17118542,9.537302
1742312578.3212924,-0.95658517,0.0027123408,-0.00683332,0.2913602,0.0021305287,-0.01704423,-0.0053263213,-0.021547815,-0.11851298,9.537302
1742312578.3225965,-0.9565854,0.002714421,-0.0068375976,0.29135925,-0.021305285,-0.010652643,-0.0010652643,-0.021547815,-0.11851298,9.537302
1742312578.3248532,-0.9565879,0.0027140782,-0.006833175,0.29135108,-0.023435814,-0.012783172,0.009587379,-0.021547815,-0.11851298,9.537302
1742312578.3268163,-0.95658994,0.0027164253,-0.0068357224,0.29134452,-0.021305285,-0.019174758,0.003195793,-0.06584055,-0.08020575,9.522937
1742312578.3289804,-0.95659083,0.002715067,-0.0068413,0.29134154,-0.015978964,-0.006391586,0.003195793,-0.06584055,-0.08020575,9.522937
1742312578.3310833,-0.9565948,0.0027089824,-0.006859925,0.291328,-0.019174758,0.0,0.0149137005,-0.06584055,-0.08020575,9.522937
1742312578.3331695,-0.95659864,0.0027115042,-0.0068645556,0.29131538,-0.02237055,-0.019174758,0.003195793,-0.020350715,-0.18555063,9.471462
1742312578.341123,-0.9566008,0.0027129434,-0.006877069,0.2913079,-0.012783172,-0.009587379,0.003195793,-0.020350715,-0.18555063,9.471462
1742312578.3416936,-0.9566034,0.002717079,-0.006875808,0.29129925,-0.01704423,-0.01704423,0.0053263213,0.046686932,-0.16639702,9.527725
1742312578.341887,-0.95660543,0.0027169385,-0.0068595405,0.291293,-0.009587379,-0.03728425,0.0053263213,0.046686932,-0.16639702,9.527725
1742312578.342042,-0.9566062,0.0027205725,-0.0068602697,0.2912905,-0.011717907,-0.012783172,0.003195793,0.046686932,-0.16639702,9.527725
1742312578.3424733,-0.95660734,0.0027319568,-0.006852157,0.2912869,-0.02237055,-0.031957928,0.0,0.008379706,-0.16519992,9.55885
1742312578.3450484,-0.95660675,0.0027364371,-0.0068429545,0.29128885,-0.019174758,-0.012783172,-0.0042610574,0.008379706,-0.16519992,9.55885
1742312578.3476684,-0.95661014,0.002733291,-0.006836311,0.29127815,-0.012783172,-0.02237055,0.011717907,-0.075417355,-0.24660277,9.399636
1742312578.3489478,-0.9566118,0.0027344197,-0.0068336413,0.29127255,-0.0149137005,-0.023435814,0.008522115,-0.075417355,-0.24660277,9.399636
1742312578.3511305,-0.9566131,0.0027287032,-0.0068276324,0.29126844,-0.0053263213,-0.018109493,0.0042610574,-0.075417355,-0.24660277,9.399636
1742312578.3525565,-0.95661217,0.0027203443,-0.006835611,0.29127163,-0.0021305287,-0.015978964,-0.012783172,0.03232172,-0.16998832,9.5385
1742312578.3551745,-0.95661116,0.0027201623,-0.0068219136,0.29127508,0.003195793,-0.03408846,-0.0010652643,0.03232172,-0.16998832,9.5385
1742312578.3569899,-0.95661116,0.0027213441,-0.0068074316,0.29127547,-0.0042610574,-0.02450108,-0.006391586,-0.005985504,-0.23463176,9.618706
1742312578.3590643,-0.95661074,0.002717664,-0.0068131867,0.29127657,-0.012783172,-0.012783172,-0.008522115,-0.005985504,-0.23463176,9.618706
1742312578.3612072,-0.9566083,0.002721007,-0.006818203,0.29128483,-0.01704423,-0.0074568503,-0.012783172,-0.005985504,-0.23463176,9.618706
1742312578.3632057,-0.95660794,0.0027262662,-0.0068297377,0.2912855,-0.02450108,-0.0021305287,-0.0053263213,-0.08738836,-0.18195933,9.421184
1742312578.3652003,-0.9566072,0.0027258568,-0.006834389,0.2912876,-0.015978964,-0.008522115,-0.0074568503,-0.08738836,-0.18195933,9.421184
1742312578.366818,-0.9566035,0.0027310315,-0.006828794,0.29129985,-0.0149137005,-0.026631609,-0.009587379,-0.019153614,-0.19991584,9.566033
1742312578.3684006,-0.95660096,0.0027209714,-0.0068298075,0.29130855,-0.0053263213,-0.015978964,-0.013848436,-0.019153614,-0.19991584,9.566033
1742312578.3707223,-0.95659906,0.0027140263,-0.0068133627,0.29131502,-0.0021305287,-0.03941478,-0.006391586,-0.019153614,-0.19991584,9.566033
1742312578.3724012,-0.9565954,0.0027049289,-0.0068083047,0.2913272,-0.0010652643,-0.010652643,-0.011717907,0.007182605,-0.2681506,9.526528
1742312578.374769,-0.95659274,0.0026994946,-0.0068104,0.29133597,-0.008522115,-0.013848436,-0.0074568503,0.007182605,-0.2681506,9.526528
1742312578.377963,-0.95659316,0.0027003898,-0.006817855,0.29133454,-0.01704423,-0.009587379,0.0,-0.047884032,-0.18435353,9.4295635
1742312578.3796616,-0.9565946,0.0027050704,-0.0068288646,0.2913296,-0.018109493,-0.01704423,-0.0021305287,-0.047884032,-0.18435353,9.4295635
1742312578.3811853,-0.9565937,0.0027025347,-0.006820969,0.29133263,-0.009587379,-0.015978964,-0.009587379,-0.047884032,-0.18435353,9.4295635
1742312578.3826334,-0.95659125,0.0026929132,-0.0068222093,0.2913408,-0.009587379,-0.012783172,-0.013848436,-0.093373865,-0.10055647,9.5971575
1742312578.3848839,-0.9565903,0.0026945018,-0.006823822,0.29134393,-0.020240022,-0.015978964,-0.010652643,-0.093373865,-0.10055647,9.5971575
1742312578.3869603,-0.95658857,0.0026993486,-0.00681927,0.2913495,-0.0149137005,-0.025566343,-0.015978964,-0.029927522,-0.1388637,9.5385
1742312578.3888128,-0.9565857,0.0027069612,-0.006807055,0.29135904,-0.0149137005,-0.040480044,-0.012783172,-0.029927522,-0.1388637,9.5385
1742312578.3908489,-0.9565818,0.0027042683,-0.006817195,0.29137194,-0.02237055,0.0042610574,0.0010652643,-0.05267244,-0.12808979,9.498995
1742312578.3926852,-0.9565799,0.002708509,-0.006808386,0.291378,-0.018109493,-0.03728425,-0.015978964,-0.05267244,-0.12808979,9.498995
1742312578.3947318,-0.95657915,0.0027190943,-0.0068093864,0.29138055,-0.023435814,-0.015978964,-0.0042610574,-0.05267244,-0.12808979,9.498995
1742312578.3974369,-0.95657974,0.0027211132,-0.0068073263,0.29137853,-0.0149137005,-0.0149137005,0.0021305287,-0.06943185,-0.14724341,9.557653
1742312578.3988006,-0.9565794,0.0027182645,-0.006806602,0.29138008,-0.009587379,-0.018109493,-0.0010652643,-0.06943185,-0.14724341,9.557653
1742312578.400751,-0.9565782,0.0027141504,-0.0068081976,0.29138368,-0.010652643,-0.003195793,0.0021305287,0.039504327,-0.1436521,9.5385
1742312578.4027321,-0.95657885,0.0027113853,-0.0068054497,0.29138166,-0.013848436,-0.028762136,0.0,0.039504327,-0.1436521,9.5385
1742312578.4050598,-0.9565793,0.0027142616,-0.0068024397,0.2913801,-0.015978964,-0.020240022,-0.003195793,0.039504327,-0.1436521,9.5385
1742312578.4074802,-0.9565812,0.002718076,-0.006805239,0.29137406,-0.023435814,-0.013848436,0.0021305287,-0.0035913025,-0.11372458,9.543288
1742312578.4090729,-0.95658374,0.0027212945,-0.006807843,0.29136547,-0.020240022,-0.025566343,0.0074568503,-0.0035913025,-0.11372458,9.543288
1742312578.4112165,-0.9565824,0.0027229972,-0.0068003135,0.29137,-0.0149137005,-0.028762136,-0.0149137005,-0.01436521,-0.12090719,9.56723
1742312578.4126112,-0.9565842,0.0027252373,-0.0068020183,0.29136395,-0.0149137005,-0.01704423,0.013848436,-0.01436521,-0.12090719,9.56723
1742312578.4150853,-0.95658314,0.002732663,-0.0067973835,0.29136753,-0.028762136,-0.030892665,-0.006391586,-0.01436521,-0.12090719,9.56723
1742312578.4168928,-0.9565825,0.0027331612,-0.006791669,0.29137003,-0.013848436,-0.01704423,-0.012783172,0.020350715,-0.12330139,9.543288
1742312578.4191396,-0.9565828,0.0027385084,-0.006802959,0.29136866,-0.021305285,-0.0042610574,0.0010652643,0.020350715,-0.12330139,9.543288
1742312578.4208782,-0.9565834,0.0027314185,-0.006813207,0.2913663,-0.010652643,-0.010652643,0.0053263213,-0.022744916,-0.17836803,9.452309
1742312578.4230223,-0.9565838,0.0027275821,-0.0068189558,0.29136488,-0.021305285,-0.0021305287,0.003195793,-0.022744916,-0.17836803,9.452309
1742312578.4250307,-0.95658475,0.0027205176,-0.0068249283,0.2913619,-0.006391586,-0.013848436,-0.006391586,-0.022744916,-0.17836803,9.452309
1742312578.4274993,-0.95658606,0.0027194393,-0.0068130186,0.29135773,-0.0074568503,-0.031957928,0.0,0.06943185,-0.12689269,9.485827
1742312578.4291785,-0.9565889,0.002717448,-0.006803968,0.29134852,-0.018109493,-0.020240022,0.0042610574,0.06943185,-0.12689269,9.485827
1742312578.4309347,-0.95659006,0.002713063,-0.006797261,0.2913449,-0.0074568503,-0.028762136,-0.0053263213,0.037110128,-0.19871874,9.613917
1742312578.4331934,-0.95658994,0.0027145522,-0.006793907,0.29134545,-0.02237055,-0.0149137005,-0.006391586,0.037110128,-0.19871874,9.613917
1742312578.4351737,-0.95659065,0.0027147154,-0.0067973863,0.29134297,-0.013848436,-0.015978964,0.0,0.037110128,-0.19871874,9.613917
1742312578.4367287,-0.9565936,0.0027126109,-0.00680054,0.2913334,-0.011717907,-0.013848436,0.0053263213,-0.05865794,-0.2681506,9.431957
1742312578.4390578,-0.9565948,0.0027100828,-0.0067843064,0.2913297,-0.020240022,-0.03728425,-0.0042610574,-0.05865794,-0.2681506,9.431957
1742312578.4411008,-0.95659506,0.0026996068,-0.0067792577,0.29132918,-0.0074568503,-0.012783172,-0.0010652643,0.010773907,-0.108936176,9.512163
1742312578.4425025,-0.95659524,0.0026993365,-0.0067737014,0.29132867,-0.010652643,-0.027696872,-0.0021305287,0.010773907,-0.108936176,9.512163
1742312578.444891,-0.95659417,0.0026985111,-0.006759053,0.2913326,-0.0149137005,-0.026631609,-0.009587379,0.010773907,-0.108936176,9.512163
1742312578.446816,-0.9565949,0.0026903173,-0.0067722728,0.29133025,-0.0053263213,-0.0074568503,0.0021305287,0.010773907,-0.18195933,9.640253
1742312578.4488497,-0.95659417,0.0026888452,-0.006776299,0.29133236,-0.0149137005,-0.009587379,-0.012783172,0.010773907,-0.18195933,9.640253
1742312578.4508657,-0.9565953,0.0026949393,-0.006783286,0.2913284,-0.026631609,-0.006391586,-0.0010652643,-0.03232172,-0.22146365,9.455899
1742312578.4530969,-0.95659804,0.0026996238,-0.0067956313,0.29131892,-0.019174758,-0.021305285,-0.0010652643,-0.03232172,-0.22146365,9.455899
1742312578.4549723,-0.9565978,0.002705083,-0.0067948177,0.29131994,-0.01704423,-0.027696872,-0.0021305287,-0.03232172,-0.22146365,9.455899
1742312578.4574373,-0.9565946,0.0027074302,-0.0067960047,0.29133022,-0.011717907,-0.019174758,-0.008522115,-0.025139118,-0.17717093,9.585187
1742312578.4590774,-0.9565937,0.0027090667,-0.006791679,0.29133326,-0.0149137005,-0.026631609,-0.009587379,-0.025139118,-0.17717093,9.585187
1742312578.4610486,-0.9565911,0.0027066888,-0.0067851986,0.29134187,-0.01704423,-0.028762136,-0.019174758,-0.020350715,-0.23942018,9.516952
1742312578.4626448,-0.956592,0.0027079869,-0.0067894817,0.2913389,-0.021305285,-0.012783172,-0.0021305287,-0.020350715,-0.23942018,9.516952
1742312578.4651752,-0.95658934,0.0027049999,-0.0067917504,0.29134762,-0.011717907,-0.009587379,-0.011717907,-0.020350715,-0.23942018,9.516952
1742312578.4666734,-0.9565857,0.0027031605,-0.0067939507,0.29135942,-0.006391586,-0.012783172,-0.012783172,-0.074220255,-0.20350714,9.451111
1742312578.4692533,-0.9565846,0.0026968983,-0.0068034674,0.29136312,-0.0021305287,-0.0053263213,-0.006391586,-0.074220255,-0.20350714,9.451111
1742312578.4709964,-0.95658255,0.002695862,-0.006799158,0.2913697,-0.01704423,-0.02450108,-0.011717907,-0.12330139,-0.1352724,9.531317
1742312578.4730859,-0.9565813,0.0026947004,-0.0067907134,0.29137424,-0.010652643,-0.03728425,-0.012783172,-0.12330139,-0.1352724,9.531317
1742312578.4751325,-0.95657855,0.0026885967,-0.0067848642,0.29138336,0.0,-0.010652643,-0.018109493,-0.12330139,-0.1352724,9.531317
1742312578.476741,-0.95657754,0.0026850638,-0.0067925304,0.29138654,-0.006391586,-0.012783172,-0.0042610574,-0.007182605,-0.18555063,9.562442
1742312578.4791448,-0.9565753,0.0026827771,-0.0067879525,0.29139414,-0.0074568503,-0.025566343,-0.019174758,-0.007182605,-0.18555063,9.562442
1742312578.4811437,-0.9565727,0.0026769629,-0.0067968066,0.29140243,-0.012783172,-0.0074568503,-0.0149137005,-0.09696517,-0.20350714,9.528923
1742312578.4825804,-0.9565697,0.0026886824,-0.006787717,0.29141253,-0.018109493,-0.030892665,-0.02450108,-0.09696517,-0.20350714,9.528923
1742312578.4850602,-0.9565691,0.0026917832,-0.006796329,0.29141417,-0.021305285,-0.010652643,-0.0010652643,-0.09696517,-0.20350714,9.528923
1742312578.486685,-0.95656806,0.0026945213,-0.006788764,0.2914177,-0.020240022,-0.028762136,-0.008522115,-0.090979666,-0.10055647,9.537302
1742312578.4890888,-0.95656633,0.0026971593,-0.0067895795,0.2914233,-0.0149137005,-0.023435814,-0.011717907,-0.090979666,-0.10055647,9.537302
1742312578.4911306,-0.95656765,0.002694273,-0.006797514,0.29141885,-0.021305285,-0.013848436,-0.003195793,0.021547815,-0.15442601,9.49301
1742312578.4931533,-0.95656794,0.0026960925,-0.0067952634,0.2914178,-0.01704423,-0.023435814,-0.0010652643,0.021547815,-0.15442601,9.49301
1742312578.4950037,-0.9565652,0.0026870102,-0.006786548,0.29142693,0.0053263213,-0.025566343,-0.006391586,0.005985504,-0.1388637,9.545682
1742312578.4975767,-0.95656323,0.0026937008,-0.0067878137,0.29143363,-0.02450108,-0.02450108,-0.011717907,0.005985504,-0.1388637,9.545682
1742312578.499168,-0.9565637,0.0026882873,-0.0067925756,0.29143214,-0.0074568503,-0.0053263213,0.0,0.005985504,-0.1388637,9.545682
1742312578.5010448,-0.9565639,0.0026879879,-0.0068001966,0.29143125,-0.0149137005,-0.010652643,-0.003195793,0.0023942017,-0.130484,9.599552
1742312578.5025353,-0.9565655,0.002688094,-0.00679902,0.29142568,-0.015978964,-0.012783172,0.0021305287,0.0023942017,-0.130484,9.599552
1742312578.504952,-0.9565686,0.0026904193,-0.006788499,0.29141593,-0.01704423,-0.028762136,-0.0010652643,-0.0023942017,-0.10055647,9.526528
1742312578.506586,-0.9565712,0.0026964305,-0.006801892,0.29140693,-0.02450108,-0.011717907,0.003195793,-0.0023942017,-0.10055647,9.526528
1742312578.508905,-0.95657134,0.0027002408,-0.0067999926,0.29140642,-0.02237055,-0.02450108,-0.0053263213,-0.0023942017,-0.10055647,9.526528
1742312578.5107102,-0.9565735,0.002699939,-0.00680646,0.29139942,-0.015978964,-0.013848436,0.0010652643,-0.02873042,-0.15801731,9.546879
1742312578.5125945,-0.95657545,0.0026977095,-0.006806842,0.29139283,-0.018109493,-0.02237055,0.010652643,-0.02873042,-0.15801731,9.546879
1742312578.5149505,-0.95657843,0.0026961013,-0.006820269,0.29138282,-0.020240022,-0.0010652643,0.008522115,0.02633622,-0.18195933,9.544485
1742312578.5167754,-0.9565798,0.0026942967,-0.0068183555,0.29137826,-0.011717907,-0.0149137005,0.0,0.02633622,-0.18195933,9.544485
1742312578.5189588,-0.9565805,0.0026918596,-0.006811625,0.29137617,0.0,-0.03515372,0.0021305287,0.02633622,-0.18195933,9.544485
1742312578.52107,-0.956581,0.0026895022,-0.006800954,0.2913751,-0.0042610574,-0.031957928,-0.006391586,0.009576807,-0.1448492,9.522937
1742312578.5227103,-0.95658314,0.002689802,-0.006796164,0.29136795,-0.01704423,-0.01704423,0.0010652643,0.009576807,-0.1448492,9.522937
1742312578.5251768,-0.95658696,0.0026958254,-0.006802128,0.29135534,-0.025566343,-0.008522115,0.012783172,-0.034715924,-0.23104046,9.510966
1742312578.5267887,-0.956589,0.0026975449,-0.006808529,0.2913483,-0.02450108,-0.0042610574,0.0042610574,-0.034715924,-0.23104046,9.510966
1742312578.5291924,-0.9565911,0.0026963642,-0.0068125003,0.29134125,-0.015978964,-0.008522115,-0.0021305287,-0.034715924,-0.23104046,9.510966
1742312578.5307755,-0.9565911,0.0026852149,-0.006818418,0.29134136,-0.0053263213,-0.0074568503,-0.0010652643,-0.025139118,-0.20470424,9.465476
1742312578.5329714,-0.9565912,0.0026909655,-0.0068239667,0.29134095,-0.015978964,-0.019174758,-0.0053263213,-0.025139118,-0.20470424,9.465476
1742312578.5347016,-0.95659024,0.0026917823,-0.0068218163,0.29134402,-0.021305285,-0.012783172,-0.0021305287,0.03232172,-0.12928689,9.5013895
1742312578.5364892,-0.9565921,0.0027039237,-0.0068274997,0.29133803,-0.030892665,-0.02237055,0.006391586,0.03232172,-0.12928689,9.5013895
1742312578.5387692,-0.9565921,0.002699038,-0.0068188477,0.29133797,-0.006391586,-0.02237055,-0.0021305287,0.03232172,-0.12928689,9.5013895
1742312578.540886,-0.9565917,0.0027023717,-0.0068222154,0.29133907,-0.006391586,-0.012783172,-0.009587379,-0.02873042,-0.24181437,9.518148
1742312578.5424907,-0.95659137,0.0027016439,-0.0068233474,0.29134014,-0.021305285,-0.01704423,-0.010652643,-0.02873042,-0.24181437,9.518148
1742312578.544981,-0.95659184,0.0027008639,-0.006819658,0.2913386,-0.010652643,-0.02450108,-0.0053263213,-0.10055647,-0.16879122,9.4295635
1742312578.547775,-0.9565902,0.0026987249,-0.006830249,0.29134387,-0.006391586,-0.011717907,-0.008522115,-0.10055647,-0.16879122,9.4295635
1742312578.5492074,-0.95658994,0.002698668,-0.0068296753,0.29134488,-0.013848436,-0.019174758,-0.0053263213,-0.10055647,-0.16879122,9.4295635
1742312578.5510247,-0.9565876,0.002684397,-0.0068293205,0.2913526,-0.012783172,-0.02450108,-0.015978964,0.016759412,-0.22984336,9.611523
1742312578.5526464,-0.95658624,0.0026849725,-0.0068253046,0.29135713,-0.012783172,-0.025566343,-0.012783172,0.016759412,-0.22984336,9.611523
1742312578.554944,-0.9565847,0.0026878316,-0.006819453,0.2913622,-0.015978964,-0.018109493,-0.015978964,-0.04070143,-0.2633622,9.574412
1742312578.556547,-0.9565837,0.0026745072,-0.0068254746,0.29136586,-0.0010652643,-0.010652643,-0.0053263213,-0.04070143,-0.2633622,9.574412
1742312578.5587819,-0.9565824,0.0026790858,-0.0068336665,0.29136956,-0.0149137005,-0.019174758,-0.015978964,-0.04070143,-0.2633622,9.574412
1742312578.5608268,-0.9565808,0.0026827964,-0.0068218648,0.29137507,-0.0053263213,-0.025566343,-0.0042610574,-0.1316811,-0.130484,9.504981
1742312578.5625625,-0.9565784,0.0026763612,-0.006818441,0.2913832,-0.010652643,-0.02450108,-0.006391586,-0.1316811,-0.130484,9.504981
1742312578.5647557,-0.95657724,0.0026822418,-0.0068212487,0.2913868,-0.031957928,-0.01704423,-0.0010652643,-0.03232172,-0.12330139,9.563639
1742312578.5665944,-0.9565729,0.0026857909,-0.0068197027,0.29140112,-0.018109493,-0.015978964,-0.019174758,-0.03232172,-0.12330139,9.563639
1742312578.5687163,-0.95657176,0.0026866626,-0.0068246024,0.29140472,-0.02237055,-0.019174758,-0.0074568503,-0.03232172,-0.12330139,9.563639
1742312578.570672,-0.9565692,0.002688294,-0.0068196254,0.29141337,-0.0042610574,-0.019174758,-0.020240022,-0.05865794,-0.17717093,9.508572
1742312578.5726366,-0.9565672,0.0026910172,-0.006809456,0.2914199,-0.0074568503,-0.031957928,-0.008522115,-0.05865794,-0.17717093,9.508572
1742312578.5753324,-0.9565657,0.0026952745,-0.0068198983,0.29142463,-0.0149137005,-0.015978964,-0.012783172,-0.11372458,-0.142455,9.552865
1742312578.57744,-0.9565639,0.0027022327,-0.0068174475,0.29143074,-0.02450108,-0.018109493,-0.009587379,-0.11372458,-0.142455,9.552865
1742312578.5792623,-0.95656383,0.0026996934,-0.0068240645,0.29143083,-0.0149137005,-0.009587379,-0.008522115,-0.11372458,-0.142455,9.552865
1742312578.581598,-0.95656466,0.0026890682,-0.006825926,0.29142833,-0.009587379,-0.027696872,-0.0010652643,-0.037110128,-0.1364695,9.503783
1742312578.5830915,-0.9565616,0.0026914193,-0.0068158247,0.2914384,-0.0149137005,-0.033023193,-0.0149137005,-0.037110128,-0.1364695,9.503783
1742312578.5846953,-0.9565601,0.0026860472,-0.006816503,0.29144353,-0.0021305287,-0.018109493,-0.010652643,0.019153614,-0.15322891,9.548077
1742312578.5868924,-0.9565612,0.0026879986,-0.0068225777,0.29143956,-0.020240022,-0.008522115,0.0042610574,0.019153614,-0.15322891,9.548077
1742312578.588986,-0.95656055,0.002690393,-0.0068162037,0.29144207,-0.008522115,-0.029827401,-0.010652643,0.017956512,-0.17118542,9.570822
1742312578.5908132,-0.95656455,0.0026908568,-0.0068295253,0.29142854,-0.021305285,-0.008522115,0.0149137005,0.017956512,-0.17118542,9.570822
1742312578.592536,-0.9565647,0.0026907257,-0.006831896,0.29142755,-0.015978964,-0.012783172,-0.0010652643,0.017956512,-0.17118542,9.570822
1742312578.595336,-0.95656663,0.0026977276,-0.0068287686,0.29142144,-0.021305285,-0.02237055,0.0010652643,0.02633622,-0.107739076,9.52174
1742312578.5982955,-0.95656574,0.0026989158,-0.0068403194,0.29142416,-0.02450108,-0.011717907,-0.0021305287,0.02633622,-0.107739076,9.52174
1742312578.5997438,-0.9565661,0.0027042222,-0.006832548,0.2914231,-0.02237055,-0.020240022,0.0042610574,-0.047884032,-0.1376666,9.491813
1742312578.6019819,-0.9565667,0.002709753,-0.0068423348,0.2914207,-0.018109493,0.003195793,0.0074568503,-0.047884032,-0.1376666,9.491813
1742312578.6033268,-0.9565704,0.0027089282,-0.0068493695,0.29140857,-0.0074568503,-0.015978964,0.0053263213,-0.047884032,-0.1376666,9.491813
1742312578.6049216,-0.95657164,0.0027071252,-0.006845965,0.29140452,-0.012783172,-0.025566343,-0.0074568503,-0.0035913025,-0.24301147,9.49301
1742312578.6065342,-0.9565758,0.0027056623,-0.00684832,0.2913908,-0.010652643,-0.015978964,0.006391586,-0.0035913025,-0.24301147,9.49301
1742312578.6089382,-0.9565792,0.002704562,-0.0068500736,0.29137966,-0.01704423,-0.015978964,0.0021305287,0.06823475,-0.1388637,9.531317
1742312578.6108325,-0.9565805,0.0027111021,-0.006837038,0.29137546,-0.021305285,-0.031957928,-0.003195793,0.06823475,-0.1388637,9.531317
1742312578.6124673,-0.95658064,0.0027189534,-0.0068374616,0.29137504,-0.023435814,-0.023435814,0.0021305287,0.06823475,-0.1388637,9.531317
1742312578.6150918,-0.95658165,0.0027144318,-0.0068264063,0.29137188,-0.010652643,-0.021305285,-0.003195793,-0.010773907,-0.25737667,9.562442
1742312578.6167178,-0.95658475,0.0027117594,-0.006817792,0.29136217,-0.010652643,-0.036218986,0.0053263213,-0.010773907,-0.25737667,9.562442
1742312578.6191924,-0.95658666,0.0027117098,-0.0068250764,0.29135567,-0.02237055,-0.0149137005,0.0042610574,-0.025139118,-0.22984336,9.440337
1742312578.6210594,-0.95659,0.002711602,-0.0068275253,0.29134452,-0.018109493,-0.009587379,0.0074568503,-0.025139118,-0.22984336,9.440337
1742312578.6233697,-0.9565869,0.0027162996,-0.006825124,0.29135475,-0.013848436,-0.0074568503,-0.009587379,-0.025139118,-0.22984336,9.440337
1742312578.6250424,-0.95658946,0.0027208028,-0.006817734,0.29134655,-0.011717907,-0.01704423,-0.0010652643,0.045489833,-0.08738836,9.5385
1742312578.62668,-0.95658934,0.0027194084,-0.0068099885,0.29134703,-0.0074568503,-0.030892665,-0.0042610574,0.045489833,-0.08738836,9.5385
1742312578.6289208,-0.9565885,0.0027310029,-0.006827251,0.2913493,-0.031957928,-0.003195793,-0.0021305287,-0.044292733,-0.20709845,9.623494
1742312578.6309917,-0.95658845,0.0027367724,-0.006831309,0.29134938,-0.020240022,-0.0149137005,-0.0042610574,-0.044292733,-0.20709845,9.623494
1742312578.6333973,-0.95659053,0.0027292373,-0.006839398,0.29134238,-0.011717907,-0.009587379,0.0042610574,-0.044292733,-0.20709845,9.623494
1742312578.634693,-0.95659184,0.0027347852,-0.0068466743,0.2913379,-0.02237055,-0.020240022,-0.0021305287,-0.075417355,-0.18076223,9.406818
1742312578.6364384,-0.9565893,0.0027295672,-0.006850732,0.29134613,-0.018109493,-0.010652643,-0.0074568503,-0.075417355,-0.18076223,9.406818
1742312578.638702,-0.9565876,0.0027261022,-0.0068454444,0.2913517,-0.009587379,-0.018109493,-0.0149137005,0.0023942017,-0.18076223,9.595961
1742312578.640693,-0.95658785,0.0027098064,-0.0068567847,0.29135087,-0.0074568503,0.0,0.0010652643,0.0023942017,-0.18076223,9.595961
1742312578.642569,-0.95658416,0.0027058378,-0.0068420526,0.29136348,-0.0053263213,-0.03515372,-0.019174758,0.0023942017,-0.18076223,9.595961
1742312578.644987,-0.9565791,0.002705301,-0.0068243,0.29138064,-0.009587379,-0.029827401,-0.021305285,0.005985504,-0.2765303,9.531317
1742312578.6475284,-0.95657516,0.0027049342,-0.0068295584,0.2913935,-0.020240022,-0.010652643,-0.0053263213,0.005985504,-0.2765303,9.531317
1742312578.649167,-0.95657426,0.0027013142,-0.0068325363,0.2913961,-0.008522115,-0.009587379,-0.008522115,-0.06464344,-0.17238252,9.44752
1742312578.650922,-0.95657164,0.0026918752,-0.0068251165,0.2914052,0.006391586,-0.029827401,-0.010652643,-0.06464344,-0.17238252,9.44752
1742312578.65313,-0.95656973,0.0027005114,-0.006820084,0.2914113,-0.029827401,-0.03408846,-0.009587379,-0.06464344,-0.17238252,9.44752
1742312578.65496,-0.956568,0.0026997256,-0.0068190554,0.29141694,-0.012783172,-0.012783172,-0.0074568503,-0.076614454,-0.08379706,9.537302
1742312578.6568246,-0.9565647,0.0026880137,-0.006803081,0.29142854,-0.006391586,-0.02450108,-0.015978964,-0.076614454,-0.08379706,9.537302
1742312578.6588805,-0.956563,0.002686728,-0.006801574,0.2914341,-0.010652643,-0.019174758,-0.008522115,-0.021547815,-0.17956513,9.576807
1742312578.6616917,-0.9565607,0.0026856973,-0.0068050106,0.29144186,-0.018109493,-0.013848436,-0.006391586,-0.021547815,-0.17956513,9.576807
1742312578.6625881,-0.95656055,0.0026961383,-0.0068113967,0.29144192,-0.023435814,-0.01704423,-0.0021305287,-0.021547815,-0.17956513,9.576807
1742312578.6651115,-0.9565607,0.0027058027,-0.006810968,0.29144144,-0.033023193,-0.02450108,-0.0021305287,-0.074220255,-0.15442601,9.533711
1742312578.666523,-0.9565616,0.0027349764,-0.0068016127,0.2914383,-0.03408846,-0.015978964,0.0042610574,-0.074220255,-0.15442601,9.533711
1742312578.6688101,-0.9565621,0.0027317156,-0.0067997216,0.2914368,-0.011717907,-0.011717907,-0.0010652643,-0.07182605,-0.15562311,9.455899
1742312578.6706197,-0.95656353,0.002732391,-0.006801374,0.29143223,-0.011717907,-0.015978964,0.003195793,-0.07182605,-0.15562311,9.455899
1742312578.6725206,-0.9565637,0.0027361903,-0.006794424,0.2914317,-0.01704423,-0.030892665,-0.0010652643,0.01316811,-0.1352724,9.560047
1742312578.6749628,-0.95656425,0.0027227676,-0.006792534,0.29143015,-0.0021305287,-0.010652643,-0.0021305287,0.01316811,-0.1352724,9.560047
1742312578.676723,-0.9565654,0.0027283104,-0.0067939945,0.29142612,-0.031957928,-0.018109493,0.0010652643,0.01316811,-0.1352724,9.560047
1742312578.6788063,-0.9565642,0.0027280243,-0.0068036057,0.29142985,-0.010652643,-0.0053263213,-0.009587379,-0.050278235,-0.16639702,9.543288
1742312578.680861,-0.9565654,0.0027309079,-0.0067976573,0.2914257,-0.020240022,-0.02237055,0.0042610574,-0.050278235,-0.16639702,9.543288
1742312578.6829689,-0.9565688,0.002741197,-0.0067985468,0.29141453,-0.026631609,-0.01704423,0.011717907,-0.020350715,-0.11133038,9.539697
1742312578.6852026,-0.95657045,0.0027488763,-0.006801833,0.29140902,-0.025566343,-0.02237055,0.003195793,-0.020350715,-0.11133038,9.539697
1742312578.686914,-0.95657414,0.0027568205,-0.006800224,0.2913968,-0.02237055,-0.025566343,0.0010652643,-0.020350715,-0.11133038,9.539697
1742312578.6892195,-0.9565736,0.0027577523,-0.0067933043,0.29139876,-0.015978964,-0.020240022,-0.009587379,0.02633622,-0.08379706,9.536105
1742312578.6911244,-0.9565744,0.0027672695,-0.006803344,0.29139587,-0.019174758,-0.0042610574,-0.0053263213,0.02633622,-0.08379706,9.536105
1742312578.6931815,-0.95657843,0.002761966,-0.0068055275,0.2913827,-0.013848436,-0.019174758,0.02237055,0.0047884034,-0.22266077,9.498995
1742312578.6952548,-0.95658207,0.002760588,-0.006807171,0.29137054,-0.013848436,-0.02450108,0.0149137005,0.0047884034,-0.22266077,9.498995
1742312578.698021,-0.956585,0.0027609097,-0.006809815,0.2913609,-0.015978964,-0.0074568503,0.012783172,0.0047884034,-0.22266077,9.498995
1742312578.6987848,-0.9565883,0.0027621493,-0.0068036704,0.2913502,-0.010652643,-0.03408846,0.003195793,0.049081136,-0.10534488,9.485827
1742312578.7009106,-0.9565891,0.0027656276,-0.0068040374,0.29134768,-0.013848436,-0.010652643,-0.0010652643,0.049081136,-0.10534488,9.485827
1742312578.7030694,-0.95658946,0.002763678,-0.0067981463,0.29134664,-0.009587379,-0.030892665,-0.0010652643,0.031124622,-0.17118542,9.665392
1742312578.704874,-0.9565905,0.0027584464,-0.006803494,0.2913432,-0.010652643,-0.0074568503,0.0042610574,0.031124622,-0.17118542,9.665392
1742312578.7067657,-0.95659125,0.0027507937,-0.0068024816,0.29134068,-0.0010652643,-0.0149137005,0.0021305287,0.031124622,-0.17118542,9.665392
1742312578.7090123,-0.9565943,0.0027523825,-0.006790629,0.29133093,-0.013848436,-0.030892665,0.0074568503,-0.031124622,-0.24540567,9.36492
1742312578.7108624,-0.9565965,0.0027458365,-0.0067864843,0.29132378,-0.0149137005,-0.011717907,0.0021305287,-0.031124622,-0.24540567,9.36492
1742312578.7125206,-0.9565975,0.0027344048,-0.006798731,0.2913204,-0.013848436,-0.0042610574,-0.0010652643,0.008379706,-0.09935937,9.524135
1742312578.714747,-0.9565968,0.0027312029,-0.0067899833,0.2913229,-0.006391586,-0.03408846,-0.0149137005,0.008379706,-0.09935937,9.524135
1742312578.7165196,-0.95659524,0.0027352488,-0.006778372,0.2913284,-0.011717907,-0.023435814,-0.008522115,0.008379706,-0.09935937,9.524135
1742312578.7249446,-0.95659506,0.0027361608,-0.0067881336,0.29132858,-0.019174758,-0.0042610574,0.0010652643,0.009576807,-0.17717093,9.563639
1742312578.7254946,-0.95659506,0.0027392833,-0.0067890827,0.29132864,-0.012783172,-0.018109493,-0.003195793,0.009576807,-0.17717093,9.563639
1742312578.7256749,-0.9565933,0.0027371661,-0.006783335,0.2913347,-0.0074568503,-0.026631609,-0.015978964,0.009576807,-0.17717093,9.563639
1742312578.7258174,-0.95659363,0.0027416663,-0.0068017324,0.29133293,-0.012783172,-0.009587379,0.0010652643,-0.045489833,-0.23343466,9.428367
1742312578.7267842,-0.95659286,0.0027465066,-0.0067991274,0.2913355,-0.0149137005,-0.028762136,-0.008522115,-0.045489833,-0.23343466,9.428367
1742312578.7292166,-0.9565911,0.0027506046,-0.00679944,0.29134113,-0.02237055,-0.019174758,-0.0149137005,-0.04309563,-0.1376666,9.540894
1742312578.730996,-0.95658636,0.0027511264,-0.0067813713,0.29135728,-0.015978964,-0.031957928,-0.0149137005,-0.04309563,-0.1376666,9.540894
1742312578.7330883,-0.95658743,0.002746963,-0.006778072,0.2913537,-0.013848436,-0.02450108,0.0010652643,-0.019153614,-0.2669535,9.570822
1742312578.7352147,-0.95658714,0.0027463147,-0.006777645,0.29135472,-0.012783172,-0.018109493,-0.0053263213,-0.019153614,-0.2669535,9.570822
1742312578.736639,-0.9565871,0.0027473192,-0.0067883977,0.29135492,-0.0149137005,-0.008522115,0.0053263213,-0.019153614,-0.2669535,9.570822
1742312578.7389486,-0.95658964,0.0027275681,-0.006825179,0.29134566,0.008522115,0.021305285,0.009587379,-0.108936176,-0.30286652,9.671378
1742312578.740712,-0.9565884,0.0027085433,-0.0068482924,0.2913495,0.009587379,0.03728425,-0.010652643,-0.108936176,-0.30286652,9.671378
1742312578.7425635,-0.95656073,0.002599209,-0.006950556,0.29143882,0.05219795,0.1043959,-0.077764295,-0.1436521,0.6428431,11.505336
1742312578.7449439,-0.9565384,0.0024852816,-0.006998905,0.29151225,0.08841694,0.063915856,-0.07243797,-0.1436521,0.6428431,11.505336
1742312578.746902,-0.9565198,0.0023082262,-0.006960956,0.2915756,0.15126753,-0.028762136,-0.075633764,-0.1436521,0.6428431,11.505336
1742312578.7490933,-0.9565023,0.0021759612,-0.006912621,0.2916352,0.13848436,-0.026631609,-0.064981125,-0.8607155,0.46926352,5.0374002
1742312578.7511547,-0.95649403,0.0020226939,-0.006919076,0.29166323,0.107591696,0.038349517,-0.026631609,-0.8607155,0.46926352,5.0374002
1742312578.7525547,-0.95649153,0.0018977473,-0.0068918816,0.291673,0.11717907,-0.04154531,-0.010652643,-0.35673606,-1.7010803,5.5940523
1742312578.7548273,-0.95648575,0.0017588309,-0.006831712,0.29169413,0.079894826,-0.047936894,-0.021305285,-0.35673606,-1.7010803,5.5940523
1742312578.7564957,-0.95648104,0.0017455908,-0.0068063834,0.29171014,0.03728425,-0.06817692,-0.03728425,-0.35673606,-1.7010803,5.5940523
1742312578.7588437,-0.9564692,0.0017088827,-0.0067474255,0.29175076,0.04261057,-0.06178533,-0.043675836,0.40342298,0.20231004,7.642292
1742312578.760806,-0.9564616,0.0016340729,-0.0066777337,0.29177755,0.08415588,-0.07030744,-0.036218986,0.40342298,0.20231004,7.642292
1742312578.762471,-0.95645213,0.0015660502,-0.0066632517,0.2918095,0.026631609,0.010652643,-0.03515372,0.034715924,1.2198458,6.045359
1742312578.7647655,-0.95644385,0.0015711844,-0.0066643655,0.2918365,-0.027696872,-0.02450108,-0.036218986,0.034715924,1.2198458,6.045359
1742312578.7665198,-0.9564378,0.0015606348,-0.0066522816,0.29185674,0.0021305287,-0.029827401,-0.025566343,-1.0307038,0.4141969,9.974244
1742312578.768603,-0.9564344,0.0015223568,-0.0066192565,0.29186854,0.02237055,-0.036218986,-0.006391586,-1.0307038,0.4141969,9.974244
1742312578.7708004,-0.95643204,0.0015274298,-0.0066239615,0.29187614,-0.04261057,-0.03515372,-0.015978964,-1.0307038,0.4141969,9.974244
1742312578.7725413,-0.95642424,0.0015507053,-0.006653081,0.29190126,-0.055393744,-0.008522115,-0.03728425,-0.6991069,0.107739076,9.662998
1742312578.775243,-0.9564107,0.0015566053,-0.0066877934,0.29194465,-0.029827401,0.0,-0.025566343,-0.6991069,0.107739076,9.662998
1742312578.777486,-0.95640725,0.0015544604,-0.00670559,0.2919555,-0.029827401,0.0074568503,-0.025566343,0.12808979,0.17477672,9.323022
1742312578.7794957,-0.9564013,0.00153551,-0.006717273,0.29197484,-0.013848436,-0.012783172,-0.023435814,0.12808979,0.17477672,9.323022
1742312578.7817307,-0.95640093,0.0014819215,-0.0067006466,0.2919766,0.01704423,-0.02237055,0.0021305287,-0.025139118,-0.62488663,11.385626
1742312578.7835233,-0.9564017,0.0014779894,-0.006706456,0.2919741,-0.0149137005,-0.008522115,0.0021305287,-0.025139118,-0.62488663,11.385626
1742312578.7848256,-0.956406,0.001466508,-0.0067335768,0.29195958,-0.01704423,0.012783172,0.019174758,-0.025139118,-0.62488663,11.385626
1742312578.7866862,-0.95641124,0.0014659183,-0.00676435,0.29194152,-0.013848436,-0.0053263213,0.019174758,-0.035913024,0.23822308,11.803414
1742312578.7888398,-0.9564135,0.0014382149,-0.0067716194,0.29193395,0.0010652643,-0.0010652643,0.003195793,-0.035913024,0.23822308,11.803414
1742312578.7906835,-0.9564187,0.0014357556,-0.006789585,0.29191682,-0.030892665,-0.0021305287,0.013848436,-0.035913024,0.23822308,11.803414
1742312578.792956,-0.95643044,0.0014565808,-0.006812588,0.29187784,-0.040480044,-0.008522115,0.031957928,0.079008654,-0.1352724,11.164163
1742312578.7949731,-0.956443,0.0014595743,-0.0068117296,0.2918366,-0.015978964,-0.025566343,0.040480044,0.079008654,-0.1352724,11.164163
1742312578.7975957,-0.95646024,0.0014523892,-0.0068215854,0.29177967,-0.013848436,0.0,0.062850595,-0.1328782,-0.5710171,11.744757
1742312578.799237,-0.9564799,0.00148789,-0.0068398654,0.29171464,-0.05432848,-0.0149137005,0.063915856,-0.1328782,-0.5710171,11.744757
1742312578.801516,-0.9564914,0.0015030695,-0.006845603,0.2916765,-0.045806367,-0.01704423,0.07669903,-0.1328782,-0.5710171,11.744757
1742312578.8031044,-0.9565196,0.001515868,-0.006893318,0.29158327,-0.01704423,0.0021305287,0.06178533,-0.053869538,0.2753332,11.224017
1742312578.8048558,-0.9565363,0.0015245415,-0.0068945414,0.29152828,-0.013848436,-0.027696872,0.05006742,-0.053869538,0.2753332,11.224017
1742312578.8067474,-0.95655197,0.0015268661,-0.006895812,0.29147685,-0.008522115,-0.015978964,0.05219795,0.10414778,0.2741361,11.075577
1742312578.8088093,-0.95657,0.0015259276,-0.0069117686,0.2914169,-0.031957928,0.0010652643,0.060720067,0.10414778,0.2741361,11.075577
1742312578.8106992,-0.9565896,0.0015281296,-0.0069110026,0.29135272,-0.033023193,-0.018109493,0.06604639,0.10414778,0.2741361,11.075577
1742312578.8128161,-0.956613,0.0015342775,-0.0069124554,0.29127586,-0.021305285,-0.01704423,0.07669903,0.2633622,-0.4345476,10.819398
1742312578.8148303,-0.95663667,0.0015473677,-0.0069146743,0.291198,-0.038349517,-0.019174758,0.08096009,0.2633622,-0.4345476,10.819398
1742312578.816546,-0.9566611,0.0015509833,-0.0069052945,0.29111794,-0.010652643,-0.030892665,0.08202535,-0.020350715,-0.58418524,10.0748005
1742312578.8189232,-0.9566735,0.0015577582,-0.006909255,0.29107672,-0.028762136,-0.012783172,0.08309062,-0.020350715,-0.58418524,10.0748005
1742312578.8207703,-0.95671445,0.0015716377,-0.006929331,0.29094145,-0.04154531,0.0010652643,0.092677996,-0.020350715,-0.58418524,10.0748005
1742312578.822549,-0.95674103,0.0015657862,-0.0069246124,0.2908543,-0.0053263213,-0.02450108,0.08841694,0.08499416,-0.021547815,10.484209
1742312578.8252106,-0.95678115,0.0015604398,-0.006933734,0.290722,-0.010652643,-0.019174758,0.08415588,0.08499416,-0.021547815,10.484209
1742312578.8266714,-0.9567933,0.0015596506,-0.0069408887,0.29068184,-0.01704423,-0.0021305287,0.08096009,0.2633622,0.14963761,9.879673
1742312578.828927,-0.9568186,0.0015659049,-0.0069504064,0.29059842,-0.015978964,-0.013848436,0.08415588,0.2633622,0.14963761,9.879673
1742312578.8315332,-0.95684654,0.0015820577,-0.0069663394,0.29050592,-0.038349517,0.0010652643,0.092677996,0.2633622,0.14963761,9.879673
1742312578.8331885,-0.956874,0.0015866277,-0.0069729947,0.29041532,-0.0149137005,-0.015978964,0.09374326,0.14724341,-0.15562311,9.556456
1742312578.8349316,-0.9569156,0.0015843766,-0.006969313,0.2902783,0.0,-0.020240022,0.09374326,0.14724341,-0.15562311,9.556456
1742312578.8366833,-0.95692873,0.0015795074,-0.006963537,0.29023495,-0.0021305287,-0.023435814,0.08735167,0.059855044,-0.4369418,9.015367
1742312578.8390768,-0.9569564,0.0015570306,-0.0069606286,0.29014426,0.0149137005,-0.008522115,0.09587379,0.059855044,-0.4369418,9.015367
1742312578.841055,-0.95698607,0.0015422312,-0.0069748475,0.2900461,-0.008522115,-0.0042610574,0.09906958,0.059855044,-0.4369418,9.015367
1742312578.843029,-0.95701534,0.0015331773,-0.006991882,0.289949,-0.010652643,0.013848436,0.09693905,0.12928689,-0.2908955,9.069236
1742312578.8451216,-0.95705444,0.0015361576,-0.007020961,0.2898194,-0.010652643,-0.003195793,0.08415588,0.12928689,-0.2908955,9.069236
1742312578.8474982,-0.95708305,0.0015367378,-0.007051453,0.28972396,-0.015978964,0.0074568503,0.09480853,0.24061728,0.44891283,9.0716305
1742312578.849291,-0.95709556,0.0015360103,-0.0070666866,0.28968236,-0.023435814,0.0149137005,0.08415588,0.24061728,0.44891283,9.0716305
1742312578.8511145,-0.957122,0.0015401795,-0.007102504,0.28959408,-0.03515372,0.0149137005,0.08628641,0.24061728,0.44891283,9.0716305
1742312578.8525693,-0.9571501,0.0015485949,-0.0071280594,0.2895006,-0.040480044,0.0074568503,0.091612734,0.10414778,0.20470424,8.710106
1742312578.85482,-0.9571747,0.0015561735,-0.007159536,0.28941837,-0.03515372,0.01704423,0.08202535,0.10414778,0.20470424,8.710106
1742312578.856511,-0.95719975,0.0015738213,-0.007196854,0.2893347,-0.05752427,0.012783172,0.0894822,-0.01436521,-0.16759412,8.639477
1742312578.8587968,-0.9572231,0.0015912391,-0.0072251493,0.2892565,-0.043675836,0.006391586,0.079894826,-0.01436521,-0.16759412,8.639477
1742312578.8607476,-0.95724493,0.0016217296,-0.007253582,0.2891834,-0.059654802,-0.008522115,0.07030744,0.260968,0.21308395,8.492233
1742312578.862566,-0.95726824,0.0016652509,-0.007283552,0.28910527,-0.064981125,0.003195793,0.079894826,0.260968,0.21308395,8.492233
1742312578.8646836,-0.95729387,0.0017132619,-0.007307087,0.28901938,-0.06604639,-0.012783172,0.091612734,0.260968,0.21308395,8.492233
1742312578.8665712,-0.9573162,0.0017487038,-0.0073092617,0.28894505,-0.064981125,-0.026631609,0.075633764,0.3172317,0.19512744,8.550891
1742312578.8687358,-0.9573391,0.0017928533,-0.0073178927,0.28886873,-0.077764295,-0.02450108,0.08096009,0.3172317,0.19512744,8.550891
1742312578.8705263,-0.95736146,0.0018343091,-0.007323972,0.28879443,-0.05752427,-0.02450108,0.07882956,0.38067806,-0.034715924,8.66701
1742312578.872518,-0.95738655,0.0018884842,-0.0073216353,0.28871086,-0.07350324,-0.03941478,0.08735167,0.38067806,-0.034715924,8.66701
1742312578.8750594,-0.95740885,0.0019399923,-0.0073206034,0.2886365,-0.06604639,-0.027696872,0.07137271,0.38067806,-0.034715924,8.66701
1742312578.8766713,-0.95743114,0.0019898475,-0.007333847,0.28856182,-0.077764295,-0.018109493,0.079894826,0.32920274,-0.18914193,8.828619
1742312578.8791935,-0.95744216,0.0020187933,-0.0073477407,0.28852478,-0.08096009,-0.0010652643,0.0745685,0.32920274,-0.18914193,8.828619
1742312578.880987,-0.9574747,0.002106329,-0.0073763733,0.2884156,-0.07350324,-0.0149137005,0.079894826,0.5590461,-0.23223756,9.36492
1742312578.8829916,-0.95749897,0.0021732936,-0.0073911482,0.28833377,-0.079894826,-0.009587379,0.08096009,0.5590461,-0.23223756,9.36492
1742312578.8850183,-0.95753336,0.0022575003,-0.007419175,0.28821853,-0.07350324,0.0010652643,0.08309062,0.5374983,-0.272939,9.320627
1742312578.8866856,-0.95754534,0.0022862994,-0.007422193,0.28817835,-0.07137271,-0.019174758,0.08096009,0.5374983,-0.272939,9.320627
1742312578.889112,-0.95756876,0.0023311186,-0.0074257255,0.28810003,-0.06604639,-0.013848436,0.075633764,0.5374983,-0.272939,9.320627
1742312578.8911343,-0.957594,0.0023652776,-0.0074358312,0.28801563,-0.053263217,-0.010652643,0.08628641,0.5303157,-0.5626374,9.556456
1742312578.8934922,-0.9576191,0.0024077534,-0.0074399007,0.2879317,-0.060720067,-0.0149137005,0.0894822,0.5303157,-0.5626374,9.556456
1742312578.8949394,-0.9576559,0.0024670572,-0.0074604033,0.2878083,-0.058589537,-0.0042610574,0.08735167,0.641646,-0.33279404,9.93474
1742312578.896803,-0.9576673,0.0024816946,-0.0074633975,0.28777018,-0.040480044,-0.009587379,0.07669903,0.641646,-0.33279404,9.93474
1742312578.8989778,-0.95768833,0.0025177612,-0.0074704937,0.28769955,-0.04900216,-0.0074568503,0.07137271,0.641646,-0.33279404,9.93474
1742312578.9006894,-0.95771325,0.0025473791,-0.00747898,0.2876162,-0.03941478,-0.0053263213,0.08202535,0.51235914,-0.45370123,10.012551
1742312578.90287,-0.9577382,0.0025804397,-0.0074976566,0.28753242,-0.05006742,-0.0053263213,0.08415588,0.51235914,-0.45370123,10.012551
1742312578.9048548,-0.9577643,0.0026093381,-0.0074886386,0.2874453,-0.028762136,-0.020240022,0.08522114,0.51235914,-0.45370123,10.012551
1742312578.9065793,-0.9577879,0.0026315702,-0.0074967304,0.28736654,-0.033023193,0.0021305287,0.0745685,0.46686932,-0.4333505,10.073604
1742312578.9086955,-0.9578126,0.0026439312,-0.007506666,0.28728315,-0.025566343,-0.0010652643,0.091612734,0.46686932,-0.4333505,10.073604
1742312578.9105651,-0.9578357,0.0026720199,-0.0075274473,0.28720555,-0.043675836,0.006391586,0.075633764,0.61411273,-0.44771573,10.255563
1742312578.912471,-0.95786023,0.002687175,-0.0075379657,0.28712323,-0.03728425,0.0010652643,0.08309062,0.61411273,-0.44771573,10.255563
1742312578.9149776,-0.9578853,0.00270283,-0.0075545125,0.28703892,-0.026631609,-0.0074568503,0.079894826,0.61411273,-0.44771573,10.255563
1742312578.9170682,-0.9579101,0.0027348795,-0.0075658504,0.2869556,-0.03728425,-0.013848436,0.08522114,0.5674258,-0.36391866,10.09994
1742312578.9191773,-0.9579359,0.002777605,-0.00756871,0.28686908,-0.055393744,-0.020240022,0.08841694,0.5674258,-0.36391866,10.09994
1742312578.92109,-0.95795923,0.0028152724,-0.007568891,0.2867907,-0.043675836,-0.023435814,0.0745685,0.48123455,-0.2873042,10.177752
1742312578.9230149,-0.95798266,0.0028518396,-0.0075768447,0.2867119,-0.05645901,-0.0021305287,0.079894826,0.48123455,-0.2873042,10.177752
1742312578.9251683,-0.9580199,0.002905506,-0.0075701824,0.28658712,-0.045806367,-0.03515372,0.08628641,0.60573304,-0.2657564,9.581595
1742312578.9268665,-0.9580308,0.0029203722,-0.007558304,0.28655085,-0.033023193,-0.038349517,0.07243797,0.60573304,-0.2657564,9.581595
1742312578.9289823,-0.9580557,0.0029467917,-0.007528445,0.2864681,-0.028762136,-0.0447411,0.091612734,0.60573304,-0.2657564,9.581595
1742312578.9307365,-0.95808196,0.002984695,-0.0075089256,0.28638032,-0.040480044,-0.026631609,0.08628641,0.6967127,-0.5434838,9.385271
1742312578.9333034,-0.9581055,0.0030264715,-0.007488694,0.28630173,-0.05752427,-0.03728425,0.08309062,0.6967127,-0.5434838,9.385271
1742312578.935055,-0.9581318,0.0030585106,-0.007459053,0.28621438,-0.028762136,-0.05006742,0.090547465,0.6967127,-0.5434838,9.385271
1742312578.9372938,-0.9581602,0.0030895998,-0.0074291276,0.28611937,-0.031957928,-0.05006742,0.09800432,0.79008657,-0.5446809,9.578004
1742312578.9390368,-0.9581863,0.0031221958,-0.0073844623,0.2860329,-0.03408846,-0.062850595,0.0894822,0.79008657,-0.5446809,9.578004
1742312578.9410205,-0.9582105,0.003165379,-0.0073500657,0.28595215,-0.03408846,-0.045806367,0.08522114,0.8619126,-0.48722005,9.307459
1742312578.943398,-0.9582365,0.0031925198,-0.007314096,0.28586578,-0.021305285,-0.043675836,0.091612734,0.8619126,-0.48722005,9.307459
1742312578.9447823,-0.9582638,0.003202444,-0.0072663845,0.2857752,0.0021305287,-0.045806367,0.09587379,0.78769237,-0.7194576,9.093178
1742312578.9468064,-0.95829535,0.0031941081,-0.007225943,0.28567046,0.0021305287,-0.036218986,0.106526434,0.78769237,-0.7194576,9.093178
1742312578.9490516,-0.9583278,0.0032253072,-0.007182655,0.28556257,-0.033023193,-0.077764295,0.11291802,0.78769237,-0.7194576,9.093178
1742312578.9508057,-0.95836085,0.003326768,-0.0071058935,0.28545225,-0.09374326,-0.10865696,0.11078749,0.8319851,-0.8678981,8.258799
1742312578.9525044,-0.95839363,0.0034513092,-0.0070176683,0.2853428,-0.09906958,-0.11291802,0.1043959,0.8319851,-0.8678981,8.258799
1742312578.9551067,-0.9584347,0.0035898937,-0.006858357,0.2852072,-0.03408846,-0.16192017,0.0894822,1.3694834,0.1448492,7.9487495
1742312578.9566133,-0.9584465,0.003622804,-0.0067852037,0.28516877,-0.028762136,-0.15552859,0.075633764,1.3694834,0.1448492,7.9487495
1742312578.9591317,-0.9584687,0.0036857093,-0.006647386,0.28509662,-0.020240022,-0.14594121,0.06604639,1.3694834,0.1448492,7.9487495
1742312578.9610355,-0.95848745,0.003755991,-0.0065174485,0.28503585,-0.038349517,-0.13741909,0.055393744,1.5897499,-0.46686932,8.392874
1742312578.9632196,-0.958511,0.003779294,-0.0063604712,0.28495994,0.02450108,-0.14274542,0.075633764,1.5897499,-0.46686932,8.392874
1742312578.9646752,-0.95853513,0.0037953458,-0.0062193605,0.2848817,0.021305285,-0.121440135,0.079894826,1.5155296,-1.3072342,9.475053
1742312578.9665732,-0.9585595,0.0038036017,-0.006064474,0.28480276,0.012783172,-0.13528857,0.090547465,1.5155296,-1.3072342,9.475053
1742312578.9687824,-0.9585865,0.0038220754,-0.0059186183,0.28471476,0.04154531,-0.1310275,0.08628641,1.5155296,-1.3072342,9.475053
1742312578.970814,-0.95861393,0.003810788,-0.005782376,0.2846253,0.051132686,-0.12463593,0.08628641,1.3922282,-1.7058687,9.194932
1742312578.9724488,-0.9586376,0.003773173,-0.0056316378,0.28454885,0.08522114,-0.11824434,0.06924218,1.3922282,-1.7058687,9.194932
1742312578.9753377,-0.9586564,0.003662707,-0.005437747,0.28449076,0.23542342,-0.16298544,0.043675836,1.8112136,-2.9233203,9.927557
1742312578.97749,-0.9586704,0.0034197695,-0.0051294263,0.28445247,0.37710357,-0.23435815,0.053263217,1.8112136,-2.9233203,9.927557
1742312578.9795535,-0.95870465,0.0029880935,-0.004702572,0.28434908,0.5667206,-0.3195793,0.09800432,1.8112136,-2.9233203,9.927557
1742312578.9809802,-0.9587142,0.0025606595,-0.0045279716,0.28432393,0.41864887,0.14594121,-0.0021305287,-0.61411273,-4.675876,16.591818
1742312578.983086,-0.9587258,0.0022168334,-0.004447447,0.2842892,0.33236247,-0.028762136,0.019174758,-0.61411273,-4.675876,16.591818
1742312578.9849393,-0.9586872,0.0021540194,-0.004488619,0.28441927,0.063915856,0.105461165,-0.1821602,-2.7700913,5.6335564,26.260801
1742312578.986559,-0.9586422,0.0019911986,-0.00465713,0.28456935,0.15446332,0.23542342,-0.15552859,-2.7700913,5.6335564,26.260801
1742312578.988956,-0.95858216,0.0018979197,-0.0049853027,0.28476614,0.031957928,0.30360034,-0.20772654,-2.7700913,5.6335564,26.260801
1742312578.9909413,-0.9585329,0.0018913286,-0.0053798007,0.28492498,-0.19813916,0.33555827,-0.15765911,0.533907,3.0777464,15.774198
1742312578.9935422,-0.958475,0.002080604,-0.0055606943,0.2851151,-0.34834144,0.05432848,-0.20026968,0.533907,3.0777464,15.774198
1742312578.9949138,-0.95842326,0.0023402802,-0.005782011,0.2852822,-0.31425297,0.119309604,-0.17683388,2.172738,-0.9828198,12.006922
1742312578.9969656,-0.95836765,0.0024202222,-0.006051843,0.28546298,-0.21731392,0.2631203,-0.19281285,2.172738,-0.9828198,12.006922
1742312578.9991012,-0.95832014,0.0024853249,-0.0062785903,0.28561682,-0.06178533,0.14807174,-0.16192017,2.172738,-0.9828198,12.006922
1742312579.0008683,-0.95826066,0.0025172113,-0.0063794185,0.28581408,-0.059654802,0.08628641,-0.22264025,-1.34195,-2.621651,5.7400985
1742312579.0029945,-0.9582018,0.0022923227,-0.006399151,0.2860123,0.22477077,0.08522114,-0.20133495,-1.34195,-2.621651,5.7400985
1742312579.0050032,-0.9581476,0.002064729,-0.0063834228,0.28619632,0.30573085,-0.013848436,-0.19920443,-0.92296475,-1.4077905,3.752911
1742312579.006787,-0.95808905,0.0019102419,-0.0063713044,0.28639355,0.075633764,0.027696872,-0.20453075,-0.92296475,-1.4077905,3.752911
1742312579.0088477,-0.95804423,0.0017411681,-0.0063135508,0.28654587,0.25033712,-0.03515372,-0.15020227,-0.92296475,-1.4077905,3.752911
1742312579.0109065,-0.95800364,0.0015363585,-0.0063564572,0.28668183,0.20666128,0.063915856,-0.14700648,-0.16639702,0.700304,2.694674
1742312579.0130258,-0.9579691,0.0012714318,-0.0063394825,0.28679875,0.17789914,0.055393744,-0.11824434,-0.16639702,0.700304,2.694674
1742312579.0150437,-0.9579385,0.0010704193,-0.006330908,0.286902,0.22477077,0.0010652643,-0.11824434,-0.061052144,-0.45250413,5.3881507
1742312579.0172179,-0.95790434,0.0008953438,-0.0063172947,0.28701696,0.121440135,0.020240022,-0.119309604,-0.061052144,-0.45250413,5.3881507
1742312579.0191913,-0.9578718,0.00068587204,-0.0062509854,0.28712732,0.22050971,-0.018109493,-0.11078749,-0.061052144,-0.45250413,5.3881507
1742312579.020853,-0.95784193,0.00056211976,-0.0062219454,0.2872279,0.14381069,-0.028762136,-0.11185275,0.23463176,0.47285482,4.021062
1742312579.0230737,-0.95781296,0.00047764592,-0.006165937,0.28732577,0.051132686,-0.0149137005,-0.10333064,0.23463176,0.47285482,4.021062
1742312579.0258014,-0.9577931,0.000376657,-0.006121126,0.28739315,0.11398328,-0.033023193,-0.06604639,0.59855044,0.19393034,6.1638722
1742312579.026573,-0.9577761,0.0002738611,-0.0060736006,0.28745085,0.08202535,-0.03515372,-0.055393744,0.59855044,0.19393034,6.1638722
1742312579.0289917,-0.9577647,0.00010107566,-0.0059685083,0.28749114,0.18109493,-0.05432848,-0.04687163,0.59855044,0.19393034,6.1638722
1742312579.0307848,-0.95775306,-6.2729894e-05,-0.0058896146,0.2875317,0.19600864,-0.06924218,-0.053263217,0.78888947,-0.30166942,5.720945
1742312579.0324707,-0.9577381,-0.00020730068,-0.0057930406,0.28758338,0.12357066,-0.03408846,-0.060720067,0.78888947,-0.30166942,5.720945
1742312579.0349767,-0.95772797,-0.00027743814,-0.005742611,0.28761816,0.149137,-0.05645901,-0.07669903,0.78888947,-0.30166942,5.720945
1742312579.0364587,-0.9577036,-0.0004803823,-0.0056294072,0.2877013,0.105461165,-0.025566343,-0.05645901,0.81163436,0.8822633,7.7931266
1742312579.038812,-0.957687,-0.0005879542,-0.005551444,0.2877578,0.079894826,-0.026631609,-0.062850595,0.4381389,1.2856863,7.345411
1742312579.0405126,-0.95767206,-0.00068638986,-0.005500434,0.2878084,0.09906958,-0.02450108,-0.05752427,0.4381389,1.2856863,7.345411
1742312579.0424256,-0.9576528,-0.0007754985,-0.005446456,0.28787324,0.051132686,-0.01704423,-0.07243797,0.4381389,1.2856863,7.345411
1742312579.0450985,-0.9576334,-0.0008435834,-0.0053735054,0.28793898,0.0447411,-0.060720067,-0.077764295,0.48243165,0.91219085,8.109161
1742312579.0480008,-0.9576115,-0.00093909993,-0.0053175734,0.2880125,0.026631609,-0.027696872,-0.045806367,0.48243165,0.91219085,8.109161
1742312579.049471,-0.95760685,-0.0009672625,-0.0053037405,0.28802824,0.026631609,-0.012783172,-0.036218986,0.92057055,0.04189853,9.132683
1742312579.051975,-0.9575927,-0.0010031876,-0.005290522,0.28807515,0.027696872,0.0,-0.04687163,0.92057055,0.04189853,9.132683
1742312579.0537043,-0.9575826,-0.0010261323,-0.0053064255,0.28810856,0.0021305287,0.019174758,-0.036218986,0.92057055,0.04189853,9.132683
1742312579.0549989,-0.95757127,-0.0010691262,-0.0053150104,0.28814593,-0.0042610574,0.0149137005,-0.036218986,0.78888947,0.61291564,9.739613
1742312579.0564377,-0.95755917,-0.0010901063,-0.0053386367,0.2881855,-0.027696872,0.003195793,-0.051132686,0.78888947,0.61291564,9.739613
1742312579.0587256,-0.95754355,-0.0010956263,-0.0053614224,0.28823686,-0.055393744,0.018109493,-0.06178533,0.7422025,0.80564886,10.280702
1742312579.060882,-0.9575261,-0.0011136399,-0.0053769182,0.28829473,-0.027696872,0.018109493,-0.063915856,0.7422025,0.80564886,10.280702
1742312579.0628145,-0.9575072,-0.0011404997,-0.0054050554,0.28835678,-0.0149137005,0.036218986,-0.06178533,0.7422025,0.80564886,10.280702
1742312579.0647655,-0.95748544,-0.0011950753,-0.005425671,0.28842837,0.025566343,0.03408846,-0.08096009,0.91937345,0.1352724,10.796653
1742312579.0665083,-0.9574632,-0.001238688,-0.0054665357,0.28850114,0.015978964,0.06178533,-0.07350324,0.91937345,0.1352724,10.796653
1742312579.0687082,-0.9574424,-0.0012753116,-0.005509017,0.2885694,-0.003195793,0.04261057,-0.06817692,0.6715736,0.3866636,10.807426
1742312579.0707405,-0.95742214,-0.0013045538,-0.005559479,0.28863567,-0.020240022,0.060720067,-0.06604639,0.6715736,0.3866636,10.807426
1742312579.072754,-0.9573997,-0.0013324239,-0.005620872,0.2887086,-0.02237055,0.064981125,-0.08735167,0.6715736,0.3866636,10.807426
1742312579.0750272,-0.95737576,-0.0013637127,-0.005679258,0.28878665,-0.02450108,0.06604639,-0.08202535,0.35194764,0.21906945,11.034876
1742312579.0774753,-0.9573508,-0.0014026975,-0.0057378113,0.2888682,-0.0053263213,0.0745685,-0.090547465,0.35194764,0.21906945,11.034876
1742312579.079689,-0.95732445,-0.0014448074,-0.005812714,0.2889534,0.006391586,0.08202535,-0.092677996,0.2621651,0.074220255,10.973824
1742312579.0820034,-0.9572998,-0.0014776638,-0.00588051,0.28903347,-0.013848436,0.05645901,-0.08522114,0.2621651,0.074220255,10.973824
1742312579.0835073,-0.9572724,-0.0014972312,-0.0059453878,0.28912276,-0.018109493,0.063915856,-0.09480853,0.2621651,0.074220255,10.973824
1742312579.0850863,-0.9572319,-0.0015611072,-0.0060479897,0.28925455,0.010652643,0.05752427,-0.09374326,0.4237737,-0.01316811,10.575189
1742312579.0865571,-0.95721745,-0.0015757012,-0.006077157,0.2893017,-0.008522115,0.05645901,-0.10120011,0.4237737,-0.01316811,10.575189
1742312579.0890105,-0.9571883,-0.0016174759,-0.0061177607,0.28939685,0.0021305287,0.03728425,-0.1043959,0.44891283,0.015562311,10.42196
1742312579.0909023,-0.9571601,-0.0016450533,-0.006145907,0.2894894,-0.008522115,0.025566343,-0.09693905,0.44891283,0.015562311,10.42196
1742312579.0928302,-0.9571269,-0.001681903,-0.0061632395,0.28959864,0.0149137005,0.013848436,-0.120374866,0.44891283,0.015562311,10.42196
1742312579.095035,-0.95709515,-0.0017211621,-0.0061915354,0.28970286,0.018109493,0.028762136,-0.11291802,0.439336,-0.0047884034,10.317812
1742312579.0975502,-0.95704687,-0.0017876277,-0.006219365,0.2898611,0.026631609,0.02237055,-0.11504854,0.439336,-0.0047884034,10.317812
1742312579.0990405,-0.9570297,-0.0018137007,-0.0062219533,0.28991774,0.030892665,0.012783172,-0.121440135,0.49559975,-0.08379706,9.902418
1742312579.101497,-0.95699644,-0.0018604856,-0.0062180045,0.29002735,0.02237055,0.0,-0.119309604,0.49559975,-0.08379706,9.902418
1742312579.1033778,-0.9569636,-0.0019195272,-0.0062117865,0.29013538,0.038349517,-0.006391586,-0.119309604,0.49559975,-0.08379706,9.902418
1742312579.1048925,-0.95692885,-0.0019765492,-0.0061919233,0.29024994,0.04261057,-0.009587379,-0.120374866,0.35673606,-0.20350714,10.296265
1742312579.1065085,-0.9568956,-0.0020252143,-0.006163313,0.29035985,0.027696872,-0.018109493,-0.119309604,0.35673606,-0.20350714,10.296265
1742312579.1146967,-0.95686245,-0.0020685038,-0.006131777,0.29046926,0.020240022,-0.030892665,-0.11291802,0.18555063,-0.23582886,9.642648
1742312579.1153054,-0.9568297,-0.0020839926,-0.0060766353,0.29057804,0.012783172,-0.07243797,-0.11185275,0.18555063,-0.23582886,9.642648
1742312579.1154563,-0.9567969,-0.0021074857,-0.0060219513,0.29068732,0.021305285,-0.05219795,-0.121440135,0.18555063,-0.23582886,9.642648
1742312579.1156335,-0.956744,-0.0021292933,-0.0059276256,0.2908631,0.003195793,-0.075633764,-0.12357066,0.31004912,0.22385786,8.98903
1742312579.1164906,-0.95672643,-0.0021336437,-0.0058955667,0.29092154,0.010652643,-0.06817692,-0.12570119,0.31004912,0.22385786,8.98903
1742312579.1189792,-0.95669353,-0.0021374323,-0.005825429,0.29103124,0.0010652643,-0.08415588,-0.11398328,0.59974754,0.30286652,9.009381
1742312579.1209831,-0.95666087,-0.002124588,-0.005755291,0.29113996,-0.006391586,-0.08096009,-0.11185275,0.59974754,0.30286652,9.009381
1742312579.1227503,-0.95663196,-0.0020956516,-0.005665809,0.29123688,-0.021305285,-0.1043959,-0.09800432,0.59974754,0.30286652,9.009381
1742312579.1251087,-0.95659834,-0.0020700376,-0.005582927,0.29134908,-0.026631609,-0.08415588,-0.119309604,0.7230489,0.2645593,9.066842
1742312579.127388,-0.95656496,-0.0020362935,-0.0055137025,0.2914604,-0.040480044,-0.0894822,-0.11824434,0.7230489,0.2645593,9.066842
1742312579.12897,-0.9565336,-0.0019644229,-0.0054629375,0.29156482,-0.0894822,-0.06924218,-0.1043959,0.5793968,0.5470751,8.785523
1742312579.1307478,-0.95650256,-0.0018693332,-0.005413449,0.29166827,-0.11078749,-0.07882956,-0.11504854,0.5793968,0.5470751,8.785523
1742312579.1329644,-0.95647204,-0.0017819554,-0.005370627,0.29176968,-0.10013484,-0.06924218,-0.11078749,0.37349546,0.59735334,9.48463
1742312579.1351125,-0.95644283,-0.0016816425,-0.005334887,0.29186606,-0.10972223,-0.06711165,-0.106526434,0.37349546,0.59735334,9.48463
1742312579.13748,-0.95641345,-0.0015695292,-0.0053123436,0.2919636,-0.12570119,-0.062850595,-0.10120011,0.37349546,0.59735334,9.48463
1742312579.1392236,-0.9563841,-0.001454302,-0.0053100595,0.2920603,-0.14061488,-0.040480044,-0.09800432,0.5770026,0.24061728,9.012972
1742312579.140807,-0.9563577,-0.0013368677,-0.005306474,0.29214728,-0.13741909,-0.038349517,-0.10120011,0.5770026,0.24061728,9.012972
1742312579.1428487,-0.9563297,-0.0012190948,-0.0053069964,0.29223943,-0.12889698,-0.045806367,-0.09693905,0.6500258,0.24779987,8.977059
1742312579.1448646,-0.9563297,-0.0012190948,-0.0053069964,0.29223943,-0.12889698,-0.045806367,-0.09693905,0.6500258,0.24779987,8.977059
1742312579.1470284,-0.95626444,-0.0009305277,-0.0052969684,0.29245433,-0.1310275,-0.04687163,-0.09374326,0.61052144,0.05267244,9.344569
1742312579.149236,-0.9562533,-0.00087078987,-0.0052994885,0.29249072,-0.13848436,-0.03408846,-0.07882956,0.61052144,0.05267244,9.344569
1742312579.1517317,-0.9562269,-0.00074388867,-0.0052876817,0.2925777,-0.14807174,-0.04154531,-0.09374326,0.61052144,0.05267244,9.344569
1742312579.1529095,-0.9561997,-0.00060201774,-0.0052705295,0.29266718,-0.15446332,-0.063915856,-0.09693905,0.4369418,0.22625206,8.943541
1742312579.1549726,-0.9561731,-0.00046789486,-0.0052800183,0.2927543,-0.14381069,-0.03408846,-0.090547465,0.4369418,0.22625206,8.943541
1742312579.1566339,-0.95614535,-0.00035071006,-0.0052697104,0.29284528,-0.12676646,-0.05219795,-0.09800432,0.4369418,0.22625206,8.943541
1742312579.1587188,-0.9561197,-0.00023042019,-0.0052448288,0.29292953,-0.13315804,-0.06711165,-0.08522114,0.557849,-0.05626374,9.016563
1742312579.1604283,-0.9560929,-9.297538e-05,-0.0052233846,0.29301742,-0.14594121,-0.07243797,-0.09693905,0.557849,-0.05626374,9.016563
1742312579.1628242,-0.9560667,4.300609e-05,-0.0051891697,0.29310367,-0.13741909,-0.08415588,-0.091612734,0.58657944,-0.031124622,9.487024
1742312579.1645768,-0.9560404,0.0001701266,-0.0051583075,0.29318988,-0.12889698,-0.06817692,-0.09800432,0.58657944,-0.031124622,9.487024
1742312579.1664379,-0.9560128,0.00028228122,-0.0051339082,0.2932802,-0.1225054,-0.06178533,-0.10333064,0.58657944,-0.031124622,9.487024
1742312579.16895,-0.9559836,0.00040249556,-0.005086695,0.29337594,-0.12463593,-0.09693905,-0.107591696,0.62129533,0.074220255,9.428367
1742312579.1706214,-0.9559539,0.0005369862,-0.005026978,0.29347366,-0.12676646,-0.1043959,-0.10226537,0.62129533,0.074220255,9.428367
1742312579.1727545,-0.95592594,0.0006746227,-0.004995076,0.29356498,-0.14594121,-0.06817692,-0.10013484,0.50158525,0.016759412,9.568427
1742312579.1749148,-0.95589644,0.00079787173,-0.0049613533,0.29366082,-0.11611381,-0.08841694,-0.09906958,0.50158525,0.016759412,9.568427
1742312579.1766815,-0.9558671,0.0009067406,-0.0049330327,0.2937567,-0.107591696,-0.06178533,-0.106526434,0.50158525,0.016759412,9.568427
1742312579.1791236,-0.9558386,0.0010305549,-0.0048937583,0.2938494,-0.12357066,-0.079894826,-0.10013484,0.60693014,-0.088585466,9.968259
1742312579.1807463,-0.9558078,0.0011590568,-0.004858568,0.29394984,-0.1342233,-0.079894826,-0.10972223,0.60693014,-0.088585466,9.968259
1742312579.1829588,-0.9557788,0.0012810121,-0.004824111,0.29404414,-0.12570119,-0.07243797,-0.10333064,0.6572084,-0.089782566,9.683349
1742312579.1849425,-0.9557504,0.0013953444,-0.0048098955,0.29413608,-0.121440135,-0.051132686,-0.10226537,0.6572084,-0.089782566,9.683349
1742312579.1872327,-0.95572007,0.0015034493,-0.004771154,0.29423487,-0.09374326,-0.08309062,-0.107591696,0.6572084,-0.089782566,9.683349
1742312579.1890204,-0.95568883,0.0016162903,-0.00470067,0.29433692,-0.09906958,-0.11185275,-0.11291802,0.5243302,-0.039504327,9.878476
1742312579.1907656,-0.9556582,0.0017348127,-0.0046351273,0.29443696,-0.11185275,-0.09906958,-0.107591696,0.5243302,-0.039504327,9.878476
1742312579.1931126,-0.95562756,0.0018484636,-0.0045595868,0.2945369,-0.10120011,-0.13209277,-0.106526434,0.8702923,0.05626374,8.710106
1742312579.1964004,-0.95559895,0.0019784782,-0.0044749826,0.29463017,-0.12676646,-0.11504854,-0.10226537,0.8702923,0.05626374,8.710106
1742312579.1972828,-0.95555353,0.002188692,-0.004334632,0.2947781,-0.13209277,-0.12783171,-0.106526434,1.2318168,0.51116204,9.320627
1742312579.1988287,-0.95553774,0.0022653183,-0.004284575,0.29482928,-0.13741909,-0.14061488,-0.11078749,1.2318168,0.51116204,9.320627
1742312579.200494,-0.9555073,0.0024251859,-0.0041785063,0.294928,-0.14274542,-0.1342233,-0.106526434,1.2318168,0.51116204,9.320627
1742312579.2028751,-0.95547587,0.0025653248,-0.0040994384,0.29502958,-0.12357066,-0.106526434,-0.11185275,1.186327,0.32441434,9.49301
1742312579.2046106,-0.9554443,0.002700719,-0.004003439,0.29513198,-0.12357066,-0.12996225,-0.11824434,1.186327,0.32441434,9.49301
1742312579.2064612,-0.9554443,0.002700719,-0.004003439,0.29513198,-0.12357066,-0.12996225,-0.11824434,1.186327,0.32441434,9.49301
1742312579.2089565,-0.9553815,0.0030367458,-0.0038240007,0.29533455,-0.17150755,-0.12357066,-0.10120011,1.0235212,0.32920274,9.774328
1742312579.210757,-0.9553532,0.00320669,-0.0037539136,0.29542512,-0.1640507,-0.09800432,-0.09906958,1.0235212,0.32920274,9.774328
1742312579.2131855,-0.95532453,0.0033647546,-0.003690639,0.2955168,-0.17044228,-0.105461165,-0.10120011,1.2437878,0.37110126,9.545682
1742312579.2149906,-0.9552943,0.0035747106,-0.003656497,0.29561248,-0.22583604,-0.08096009,-0.10013484,1.2437878,0.37110126,9.545682
1742312579.2166638,-0.9552593,0.0038326925,-0.003607807,0.29572293,-0.27590346,-0.10120011,-0.1310275,1.5717934,0.8283938,7.041347
1742312579.2191231,-0.9552253,0.0039515323,-0.0037103577,0.2958299,-0.06711165,0.092677996,-0.090547465,1.5717934,0.8283938,7.041347
1742312579.2208574,-0.9552293,0.0036516683,-0.003875582,0.2958187,0.2450108,0.22050971,0.031957928,1.5717934,0.8283938,7.041347
1742312579.223157,-0.9552401,0.003622796,-0.0038686183,0.29578432,-0.0010652643,0.079894826,0.02237055,0.142455,-3.3399115,19.303251
1742312579.225161,-0.9552485,0.00357463,-0.004177408,0.29575378,-0.018109493,0.34408036,0.051132686,0.142455,-3.3399115,19.303251
1742312579.2271597,-0.9552503,0.0034643547,-0.0043269726,0.29574683,0.120374866,0.34514564,0.0149137005,0.142455,-3.3399115,19.303251
1742312579.2287514,-0.955278,0.0033565408,-0.004962547,0.29564866,0.12570119,0.3813646,0.13209277,-2.967613,-1.2306197,20.799627
1742312579.2307043,-0.95532936,0.003295952,-0.005400549,0.2954756,-0.14594121,0.38988674,0.17150755,-2.967613,-1.2306197,20.799627
1742312579.2328205,-0.95536906,0.0035511658,-0.005601599,0.29534066,-0.29507822,0.06924218,0.13741909,-1.6136919,-1.234211,13.973758
1742312579.2349553,-0.955434,0.0037671095,-0.0059689386,0.2951206,-0.18002968,0.2567287,0.26098976,-1.6136919,-1.234211,13.973758
1742312579.236571,-0.955522,0.0038090644,-0.006144865,0.29483142,-0.121440135,0.13528857,0.29294768,3.311181,1.9692309,10.040085
1742312579.2390883,-0.95558393,0.0039024295,-0.006307097,0.29462624,-0.20666128,0.0745685,0.18961705,3.311181,1.9692309,10.040085
1742312579.2407417,-0.95562774,0.0041377037,-0.006451975,0.2944775,-0.33449298,0.026631609,0.14061488,3.311181,1.9692309,10.040085
1742312579.2431312,-0.95566815,0.004295222,-0.0065217596,0.29434258,-0.1640507,0.003195793,0.13209277,-0.9900024,1.1025299,5.8921304
1742312579.2450588,-0.95570874,0.0043829456,-0.0065928646,0.2942076,-0.06178533,0.025566343,0.13848436,-0.9900024,1.1025299,5.8921304
1742312579.2473505,-0.9557566,0.0044317893,-0.006670883,0.29404974,-0.16618124,0.045806367,0.15978965,-2.3127987,-2.0326772,7.57286
1742312579.2489462,-0.95580214,0.0044946074,-0.006725542,0.2938995,-0.1043959,-0.028762136,0.1608549,-2.3127987,-2.0326772,7.57286
1742312579.2505846,-0.9558596,0.004615139,-0.0068691224,0.29370743,-0.18322547,0.062850595,0.20985708,-2.3127987,-2.0326772,7.57286
1742312579.2525327,-0.9559122,0.00473675,-0.0069932137,0.2935313,-0.15872438,0.03515372,0.16724649,-0.50397944,-1.2904748,3.9384618
1742312579.2547183,-0.9559552,0.0048655523,-0.0070753754,0.29338726,-0.09800432,-0.003195793,0.14487594,-0.50397944,-1.2904748,3.9384618
1742312579.2565098,-0.9559857,0.0049626385,-0.0071586096,0.293284,-0.12996225,0.0021305287,0.091612734,1.6077064,0.35434186,5.5485625
1742312579.2586875,-0.95600927,0.0050227284,-0.007178026,0.29320562,-0.07030744,-0.031957928,0.06924218,1.6077064,0.35434186,5.5485625
1742312579.2608097,-0.9560302,0.0050633815,-0.0072478,0.2931348,-0.04900216,0.033023193,0.063915856,1.6077064,0.35434186,5.5485625
1742312579.2628324,-0.9560476,0.0051073036,-0.007288584,0.29307643,-0.08415588,0.01704423,0.055393744,0.39863458,0.36391866,5.6563015
1742312579.264555,-0.9560638,0.0051586702,-0.007290814,0.29302263,-0.0447411,-0.023435814,0.05432848,0.39863458,0.36391866,5.6563015
1742312579.2666001,-0.9560806,0.0052200323,-0.0073170136,0.29296607,-0.090547465,0.0,0.05752427,-0.019153614,-0.5351041,5.2385135
1742312579.2688134,-0.9561,0.005284279,-0.0073331306,0.2929012,-0.09374326,-0.02237055,0.06178533,-0.019153614,-0.5351041,5.2385135
1742312579.270565,-0.9561173,0.0053718155,-0.0073471405,0.29284284,-0.11398328,-0.026631609,0.05432848,-0.019153614,-0.5351041,5.2385135
1742312579.2726955,-0.95613474,0.0054780147,-0.0073740636,0.2927832,-0.12676646,0.006391586,0.05752427,0.7673417,-1.2629414,5.6670756
1742312579.2747746,-0.9561511,0.005571393,-0.0074056922,0.29272726,-0.08522114,0.0042610574,0.053263217,0.7673417,-1.2629414,5.6670756
1742312579.2765524,-0.95616907,0.0056427354,-0.0074508176,0.292666,-0.05219795,0.019174758,0.059654802,0.7685388,-1.2042835,7.052121
1742312579.278918,-0.95619124,0.0056743803,-0.0074913343,0.29259202,-0.038349517,0.03728425,0.0745685,0.7685388,-1.2042835,7.052121
1742312579.2806387,-0.95620614,0.005686611,-0.0075276415,0.29254198,0.0,0.015978964,0.038349517,0.7685388,-1.2042835,7.052121
1742312579.2829635,-0.95621824,0.005674081,-0.007546991,0.29250243,0.026631609,0.02237055,0.038349517,0.18315643,-0.89064306,7.463924
1742312579.284811,-0.9562306,0.0056375517,-0.0075730532,0.29246196,0.05752427,0.03515372,0.036218986,0.18315643,-0.89064306,7.463924
1742312579.2865117,-0.95624244,0.0055952338,-0.0075933854,0.2924234,0.038349517,0.01704423,0.03941478,0.33399114,-0.10534488,8.526949
1742312579.2891486,-0.9562536,0.0054830955,-0.0076129413,0.29238862,0.05645901,0.047936894,0.01704423,0.33399114,-0.10534488,8.526949
1742312579.2906675,-0.9562554,0.00543859,-0.0076366086,0.29238304,0.06711165,0.063915856,0.009587379,0.33399114,-0.10534488,8.526949
1742312579.2929025,-0.95626205,0.0053435536,-0.007672454,0.29236206,0.09480853,0.055393744,0.020240022,0.6811504,-0.6536171,9.070433
1742312579.2963789,-0.9562672,0.0052405945,-0.007693692,0.29234654,0.09693905,0.05432848,0.019174758,0.6811504,-0.6536171,9.070433
1742312579.2974508,-0.9562874,0.005110624,-0.0077757305,0.29228055,0.07350324,0.07243797,0.051132686,0.46088383,-1.6208745,9.844957
1742312579.298773,-0.95630324,0.005041669,-0.007835187,0.29222828,0.059654802,0.059654802,0.05645901,0.46088383,-1.6208745,9.844957
1742312579.3005743,-0.9563121,0.0050083636,-0.0078671565,0.29219884,0.04900216,0.07350324,0.059654802,0.46088383,-1.6208745,9.844957
1742312579.3027885,-0.95633036,0.0049355444,-0.00794413,0.29213858,0.047936894,0.091612734,0.063915856,0.29688102,-0.59136784,11.139024
1742312579.304811,-0.95634997,0.0048622317,-0.008024283,0.29207328,0.045806367,0.09480853,0.06178533,0.29688102,-0.59136784,11.139024
1742312579.306508,-0.95637184,0.0047991374,-0.008108818,0.29200032,0.040480044,0.077764295,0.07243797,0.47165772,0.008379706,11.294646
1742312579.3090568,-0.9563954,0.0047331033,-0.008185804,0.29192218,0.026631609,0.0894822,0.075633764,0.47165772,0.008379706,11.294646
1742312579.3108273,-0.95641685,0.0046606273,-0.008246394,0.2918515,0.043675836,0.06711165,0.077764295,0.2657564,-0.2825158,11.678916
1742312579.313177,-0.95643866,0.0045934296,-0.008320507,0.2917789,0.027696872,0.079894826,0.07243797,0.2657564,-0.2825158,11.678916
1742312579.315094,-0.95646447,0.0045309826,-0.008396294,0.29169303,0.018109493,0.08415588,0.092677996,0.2657564,-0.2825158,11.678916
1742312579.3165781,-0.95649236,0.0044833673,-0.008464446,0.2916004,0.021305285,0.06711165,0.090547465,0.023942016,-0.4213795,11.603498
1742312579.3191736,-0.956523,0.0044394634,-0.008531046,0.29149854,0.013848436,0.060720067,0.10972223,0.023942016,-0.4213795,11.603498
1742312579.320748,-0.9565593,0.00439996,-0.008588574,0.2913782,0.003195793,0.045806367,0.12783171,-0.12928689,-0.415394,11.291056
1742312579.323113,-0.95659304,0.004388987,-0.008650816,0.29126593,-0.020240022,0.04900216,0.11398328,-0.12928689,-0.415394,11.291056
1742312579.325178,-0.9566257,0.0043957112,-0.0087004015,0.29115707,-0.036218986,0.027696872,0.11291802,-0.12928689,-0.415394,11.291056
1742312579.3268163,-0.95666116,0.0044107707,-0.008732219,0.2910393,-0.03408846,0.009587379,0.12570119,0.29807812,0.15562311,10.785878
1742312579.3288925,-0.95669466,0.0044366354,-0.008746476,0.2909284,-0.047936894,-0.0042610574,0.119309604,0.29807812,0.15562311,10.785878
1742312579.3305671,-0.9567306,0.0044625727,-0.00874845,0.29080972,-0.03941478,-0.015978964,0.120374866,0.47764325,0.19153613,10.323798
1742312579.3328397,-0.9567675,0.0045054243,-0.008752842,0.2906875,-0.05752427,-0.023435814,0.12783171,0.47764325,0.19153613,10.323798
1742312579.3349054,-0.9568052,0.0045459648,-0.008741187,0.29056248,-0.04900216,-0.04154531,0.12783171,0.47764325,0.19153613,10.323798
1742312579.3365426,-0.9568421,0.0045770705,-0.008727047,0.2904411,-0.040480044,-0.03515372,0.12463593,0.24420857,-0.25857377,9.911995
1742312579.3390856,-0.95690334,0.0046421844,-0.008711115,0.29023916,-0.05219795,-0.033023193,0.14168015,0.24420857,-0.25857377,9.911995
1742312579.3406436,-0.95692164,0.004667439,-0.008712904,0.29017797,-0.064981125,-0.02450108,0.12463593,0.2693477,-0.48722005,9.408015
1742312579.3431506,-0.95695883,0.0047128554,-0.008699868,0.290055,-0.047936894,-0.040480044,0.12783171,0.2693477,-0.48722005,9.408015
1742312579.3451142,-0.95699406,0.004766561,-0.00867972,0.2899386,-0.06711165,-0.03941478,0.11185275,0.2693477,-0.48722005,9.408015
1742312579.3476663,-0.95703113,0.0048097945,-0.0086730905,0.2898157,-0.04900216,-0.038349517,0.12889698,0.47524905,-0.2681506,9.42238
1742312579.349201,-0.957084,0.0048243674,-0.008631634,0.28964213,0.0010652643,-0.03941478,0.120374866,0.47524905,-0.2681506,9.42238
1742312579.3506818,-0.95710003,0.0048216023,-0.008615376,0.28958952,0.0021305287,-0.040480044,0.106526434,0.37110126,-0.5710171,8.325836
1742312579.353088,-0.9571337,0.004805112,-0.008578322,0.2894797,0.012783172,-0.04261057,0.106526434,0.37110126,-0.5710171,8.325836
1742312579.3551526,-0.95716435,0.004779402,-0.008544221,0.28937963,0.03515372,-0.033023193,0.10226537,0.37110126,-0.5710171,8.325836
1742312579.3566597,-0.95719624,0.0047388943,-0.008512222,0.28927606,0.043675836,-0.02237055,0.107591696,0.51834464,-0.51355624,8.046912
1742312579.358709,-0.9572248,0.004690018,-0.008469504,0.28918362,0.05006742,-0.043675836,0.09480853,0.51834464,-0.51355624,8.046912
1742312579.3606358,-0.95725846,0.004646647,-0.008418533,0.28907424,0.04154531,-0.036218986,0.11185275,0.60812724,-0.6512229,8.346188
1742312579.3626888,-0.9572866,0.004627155,-0.0083947815,0.288982,0.006391586,-0.011717907,0.0894822,0.60812724,-0.6512229,8.346188
1742312579.364486,-0.9573161,0.0046159825,-0.008381261,0.28888476,0.0074568503,-0.018109493,0.10120011,0.60812724,-0.6512229,8.346188
1742312579.366467,-0.95734185,0.00460324,-0.008350447,0.28880057,0.01704423,-0.030892665,0.08735167,0.7182605,-0.11611878,8.09719
1742312579.3689828,-0.9573712,0.004586252,-0.008339826,0.28870395,0.01704423,-0.009587379,0.10013484,0.7182605,-0.11611878,8.09719
1742312579.3705957,-0.9573976,0.004549351,-0.008311389,0.28861782,0.02450108,-0.013848436,0.08522114,0.46447513,-0.50757074,7.8876977
1742312579.372703,-0.95742196,0.0045024697,-0.008307527,0.28853765,0.030892665,0.0042610574,0.08309062,0.46447513,-0.50757074,7.8876977
1742312579.3748348,-0.95744896,0.004464093,-0.008307262,0.2884488,0.02237055,0.010652643,0.09374326,0.46447513,-0.50757074,7.8876977
1742312579.3769388,-0.95747155,0.0044191303,-0.008311301,0.2883743,0.023435814,-0.0053263213,0.0745685,0.59974754,-0.46567222,8.1558485
1742312579.3792758,-0.95749617,0.0043815714,-0.008311851,0.28829312,0.023435814,0.011717907,0.08096009,0.59974754,-0.46567222,8.1558485
1742312579.3808947,-0.9575203,0.004361775,-0.008323085,0.28821304,0.012783172,0.0,0.07669903,0.6476316,-0.25258827,8.919599
1742312579.3831205,-0.95754284,0.0043555936,-0.00832817,0.288138,0.003195793,0.0053263213,0.06924218,0.6476316,-0.25258827,8.919599
1742312579.3851604,-0.95756483,0.004335857,-0.008336812,0.28806502,0.01704423,0.020240022,0.07669903,0.6476316,-0.25258827,8.919599
1742312579.3873343,-0.9575899,0.0043009296,-0.008327554,0.2879822,0.028762136,-0.003195793,0.079894826,0.46926352,-0.39743748,8.432379
1742312579.389027,-0.95760953,0.0042645033,-0.008312483,0.28791815,0.033023193,0.0042610574,0.07350324,0.46926352,-0.39743748,8.432379
1742312579.3905034,-0.9576351,0.0042319954,-0.008329188,0.287833,0.008522115,0.018109493,0.08415588,0.6380547,-0.33997664,8.829816
1742312579.3928092,-0.95765954,0.004212227,-0.00834713,0.28775147,-0.0053263213,0.01704423,0.079894826,0.6380547,-0.33997664,8.829816
1742312579.3949246,-0.9576841,0.004203483,-0.008353677,0.28766975,0.009587379,-0.0010652643,0.08841694,0.6380547,-0.33997664,8.829816
1742312579.3968117,-0.9577081,0.004190765,-0.008352792,0.28759003,-0.0021305287,-0.0074568503,0.07669903,0.82719666,-0.07062895,9.690532
1742312579.3991182,-0.95773476,0.004179931,-0.008350862,0.2875016,0.0021305287,-0.013848436,0.08415588,0.82719666,-0.07062895,9.690532
1742312579.4006386,-0.9577614,0.0041722823,-0.008351919,0.2874127,-0.006391586,0.009587379,0.091612734,0.7158663,-0.41060558,9.379285
1742312579.4030066,-0.95779026,0.0041723065,-0.008362557,0.28731626,-0.02450108,0.0042610574,0.09374326,0.7158663,-0.41060558,9.379285
1742312579.4051325,-0.9578194,0.004171247,-0.008360123,0.2872191,-0.0074568503,-0.010652643,0.107591696,0.6739678,-0.5638345,9.93474
1742312579.4070637,-0.9578494,0.0041627786,-0.008363031,0.28711954,0.0021305287,0.0042610574,0.105461165,0.6739678,-0.5638345,9.93474
1742312579.4089239,-0.9578817,0.004139661,-0.008354112,0.28701216,0.0074568503,-0.0053263213,0.119309604,0.6739678,-0.5638345,9.93474
1742312579.4107552,-0.9579151,0.004138513,-0.008348979,0.28690073,-0.0042610574,-0.013848436,0.10865696,0.93134445,-0.48362875,9.892841
1742312579.4132004,-0.95794463,0.0041218484,-0.008319873,0.28680333,0.019174758,-0.011717907,0.10226537,0.93134445,-0.48362875,9.892841
1742312579.4150894,-0.95797765,0.00409557,-0.0083064055,0.28669333,0.03408846,-0.009587379,0.11398328,0.94451255,-0.40222588,10.240001
1742312579.4171271,-0.9580103,0.0041075917,-0.008308967,0.28658402,-0.029827401,-0.010652643,0.11717907,0.94451255,-0.40222588,10.240001
1742312579.4188259,-0.9580422,0.0041253096,-0.008302849,0.28647715,-0.026631609,-0.010652643,0.11504854,0.94451255,-0.40222588,10.240001
1742312579.4206882,-0.95807624,0.004122361,-0.008303278,0.28636324,-0.0053263213,-0.013848436,0.10972223,0.90740246,0.035913024,10.19092
1742312579.4228952,-0.9581081,0.0041302005,-0.008284461,0.28625724,-0.02450108,-0.015978964,0.10972223,0.90740246,0.035913024,10.19092
1742312579.4248633,-0.9581378,0.004137026,-0.008271288,0.28615794,-0.013848436,-0.018109493,0.09480853,0.8643068,-0.2705448,9.915586
1742312579.4270725,-0.95816773,0.004134951,-0.008271601,0.2860578,0.0042610574,-0.008522115,0.1043959,0.8643068,-0.2705448,9.915586
1742312579.429122,-0.95822716,0.004130558,-0.008303472,0.28585818,0.0053263213,0.015978964,0.15020227,0.9935937,-0.7350199,10.022128
1742312579.4307292,-0.9582468,0.0041407715,-0.008276973,0.2857927,-0.015978964,-0.05752427,0.13315804,0.9935937,-0.7350199,10.022128
1742312579.4332447,-0.95828557,0.0042870487,-0.008208424,0.28566238,-0.14700648,-0.12889698,0.13741909,0.9935937,-0.7350199,10.022128
1742312579.4350722,-0.9583208,0.004440009,-0.0081555545,0.2855435,-0.15978965,-0.063915856,0.120374866,1.555034,0.31364042,7.277176
1742312579.4370105,-0.95835096,0.00456487,-0.0080983,0.285442,-0.091612734,-0.120374866,0.10013484,1.555034,0.31364042,7.277176
1742312579.4391668,-0.9583776,0.0046980437,-0.007943491,0.28535464,-0.11185275,-0.1789644,0.08735167,1.555034,0.31364042,7.277176
1742312579.4407046,-0.95840204,0.00480167,-0.0078115817,0.28527433,-0.08309062,-0.12570119,0.0745685,1.7956513,0.16160862,8.980651
1742312579.4432158,-0.9584246,0.0049199155,-0.0076956665,0.2851998,-0.062850595,-0.15978965,0.0745685,1.7956513,0.16160862,8.980651
1742312579.4451675,-0.95844626,0.004992907,-0.0075349044,0.28512993,-0.055393744,-0.13528857,0.06711165,1.8327614,-0.439336,8.447941
1742312579.4475424,-0.95846933,0.005022549,-0.0073933294,0.28505582,0.013848436,-0.12463593,0.0745685,1.8327614,-0.439336,8.447941
1742312579.4489808,-0.9585048,0.0050360486,-0.007138084,0.2849423,0.06711165,-0.16511597,0.06604639,1.7022774,-2.1296425,10.005369
1742312579.4505565,-0.958514,0.0050126663,-0.007068797,0.28491428,0.077764295,-0.10226537,0.05432848,1.7022774,-2.1296425,10.005369
1742312579.4528768,-0.9585325,0.004877273,-0.0069009652,0.2848578,0.23542342,-0.14061488,0.053263217,1.7022774,-2.1296425,10.005369
1742312579.4548767,-0.9585539,0.0045206463,-0.006425248,0.284803,0.59228694,-0.44847628,0.05006742,-0.20949265,-6.811504,11.865664
1742312579.4565666,-0.95858794,0.003887262,-0.005799622,0.28471115,0.8415588,-0.3227751,0.09587379,-0.20949265,-6.811504,11.865664
1742312579.4587674,-0.95861447,0.003183329,-0.0055139754,0.2846364,0.84901565,-0.05752427,0.059654802,-0.20949265,-6.811504,11.865664
1742312579.4608812,-0.95863,0.00254353,-0.0053180438,0.28459415,0.64661545,-0.036218986,0.02237055,-1.1779473,-3.3650506,20.496761
1742312579.462741,-0.95860964,0.0021784976,-0.005185041,0.2846682,0.37390777,-0.0042610574,-0.1225054,-1.1779473,-3.3650506,20.496761
1742312579.4648523,-0.9585551,0.0019670287,-0.005320838,0.28485107,0.12463593,0.2237055,-0.19174758,-2.8095956,7.386112,27.97505
1742312579.4664655,-0.95850205,0.001818106,-0.0055489643,0.28502628,0.023435814,0.2269013,-0.19813916,-2.8095956,7.386112,27.97505
1742312579.4687781,-0.95843256,0.0016614742,-0.0058110747,0.28525534,-0.023435814,0.3046656,-0.23648869,-2.8095956,7.386112,27.97505
1742312579.470459,-0.95837086,0.0016257823,-0.0062247706,0.28545395,-0.09374326,0.3675162,-0.19174758,1.1923125,2.56419,14.888343
1742312579.4727232,-0.9583022,0.00188021,-0.0065555084,0.2856754,-0.36005935,0.18535599,-0.23009709,1.1923125,2.56419,14.888343
1742312579.4747443,-0.95824087,0.0021459698,-0.006973631,0.2858697,-0.41971415,0.38882148,-0.18322547,0.49200845,-0.50996494,8.374918
1742312579.4774919,-0.95821935,0.0022484015,-0.0072154123,0.28593495,-0.36858144,0.38882148,-0.1342233,0.49200845,-0.50996494,8.374918
1742312579.4795563,-0.9580968,0.0023582124,-0.007549613,0.2863355,0.0447411,0.11398328,-0.26418555,-2.042254,-2.2050598,5.7640405
1742312579.481481,-0.95806307,0.002237053,-0.0075960644,0.2864483,0.18322547,0.13954963,-0.23755394,-2.042254,-2.2050598,5.7640405
1742312579.4832053,-0.95800453,0.0020221083,-0.007765397,0.28664094,0.18109493,0.1789644,-0.19281285,-2.042254,-2.2050598,5.7640405
1742312579.4856548,-0.95794255,0.0017877314,-0.007749588,0.28685004,0.1938781,0.015978964,-0.22796656,-0.78170687,-1.9668367,3.606865
1742312579.4873314,-0.95788914,0.0014569527,-0.0077035157,0.28703126,0.41012678,-0.0149137005,-0.18002968,-0.78170687,-1.9668367,3.606865
1742312579.48886,-0.9578482,0.0011157697,-0.0076864213,0.28716993,0.27483818,0.09374326,-0.14274542,-0.35194764,-0.81642276,4.736928
1742312579.4982705,-0.95781136,0.00077106006,-0.0076434184,0.2872951,0.3195793,0.003195793,-0.1342233,-0.35194764,-0.81642276,4.736928
1742312579.4988232,-0.9577737,0.0005456853,-0.007650145,0.28742114,0.23329288,0.026631609,-0.12783171,-0.35194764,-0.81642276,4.736928
1742312579.4990463,-0.95773715,0.00032591066,-0.0076463157,0.28754345,0.17576861,0.036218986,-0.13315804,-0.94690675,0.46567222,5.057751
1742312579.4991994,-0.95770055,0.00010862724,-0.007622636,0.28766605,0.24714132,-0.013848436,-0.12889698,-0.94690675,0.46567222,5.057751
1742312579.4993718,-0.95766056,-0.00019307678,-0.007566783,0.2878,0.22477077,-0.027696872,-0.0894822,0.21068975,0.033518825,5.273229
1742312579.500673,-0.9576496,-0.0002834652,-0.0075536743,0.2878371,0.17150755,-0.0053263213,-0.08096009,0.21068975,0.033518825,5.273229
1742312579.5029335,-0.9576298,-0.0004477383,-0.0075480393,0.28790274,0.16298544,-0.006391586,-0.06604639,0.21068975,0.033518825,5.273229
1742312579.5048172,-0.95760965,-0.0005660166,-0.007506553,0.28797075,0.08202535,-0.018109493,-0.07669903,0.6500258,0.35075054,5.4264584
1742312579.5067923,-0.9575925,-0.0006886372,-0.007422873,0.28802976,0.13209277,-0.06711165,-0.07030744,0.6500258,0.35075054,5.4264584
1742312579.5091984,-0.9575677,-0.00088443886,-0.007301175,0.28811458,0.15765911,-0.07137271,-0.05645901,0.18794483,0.51834464,6.9012866
1742312579.5106432,-0.9575588,-0.0009528143,-0.0072656134,0.28814492,0.12889698,-0.04154531,-0.06711165,0.18794483,0.51834464,6.9012866
1742312579.513091,-0.9575367,-0.001098651,-0.0071767583,0.28822023,0.14807174,-0.063915856,-0.07882956,0.18794483,0.51834464,6.9012866
1742312579.5149567,-0.95751625,-0.0012458796,-0.007095959,0.28828946,0.13528857,-0.03941478,-0.07243797,0.4405331,0.3172317,7.1490865
1742312579.516999,-0.95749885,-0.0014034472,-0.007019463,0.28834856,0.1523328,-0.025566343,-0.06817692,0.4405331,0.3172317,7.1490865
1742312579.519232,-0.95748234,-0.0015444898,-0.0069693252,0.28840372,0.12783171,-0.02450108,-0.06817692,0.2801216,0.6631939,8.301894
1742312579.5208106,-0.957462,-0.0016565083,-0.006911294,0.28847215,0.077764295,-0.029827401,-0.08522114,0.2801216,0.6631939,8.301894
1742312579.5231414,-0.95743793,-0.0017595958,-0.0068821255,0.28855196,0.07350324,-0.0074568503,-0.08096009,0.2801216,0.6631939,8.301894
1742312579.5247087,-0.95741886,-0.0018492874,-0.0068241935,0.2886163,0.07669903,-0.040480044,-0.07030744,0.20949265,0.39743748,8.680179
1742312579.526628,-0.95740366,-0.0019215901,-0.0067843082,0.28866696,0.051132686,-0.021305285,-0.045806367,0.20949265,0.39743748,8.680179
1742312579.5291893,-0.95737964,-0.001979267,-0.006781814,0.28874657,-0.011717907,0.0042610574,-0.060720067,0.22864626,0.12689269,9.404425
1742312579.530742,-0.9573706,-0.0019947144,-0.0067864805,0.28877613,0.0021305287,0.0074568503,-0.064981125,0.22864626,0.12689269,9.404425
1742312579.5331907,-0.95735645,-0.0020230745,-0.006809073,0.2888222,0.009587379,0.028762136,-0.0447411,0.22864626,0.12689269,9.404425
1742312579.5356936,-0.9573439,-0.002066024,-0.006858277,0.2888623,0.003195793,0.058589537,-0.047936894,0.32561144,0.3878607,9.455899
1742312579.537244,-0.95732737,-0.002120948,-0.0068873465,0.28891602,0.023435814,0.020240022,-0.06711165,0.32561144,0.3878607,9.455899
1742312579.5389068,-0.95730275,-0.002193842,-0.0069813905,0.28899515,0.0074568503,0.08628641,-0.06178533,0.4189853,0.11372458,10.688913
1742312579.5404944,-0.95729256,-0.002223401,-0.00700738,0.28902742,0.019174758,0.05752427,-0.07030744,0.4189853,0.11372458,10.688913
1742312579.5428934,-0.9572785,-0.0022712967,-0.0070576943,0.2890726,0.003195793,0.0745685,-0.05219795,0.4189853,0.11372458,10.688913
1742312579.5454779,-0.95726246,-0.0023215765,-0.007151573,0.28912315,-0.012783172,0.10333064,-0.058589537,0.19632454,-0.10534488,10.060435
1742312579.5471835,-0.9572452,-0.0023872443,-0.007232344,0.2891777,0.031957928,0.09906958,-0.05219795,0.19632454,-0.10534488,10.060435
1742312579.5491226,-0.9572292,-0.0024372526,-0.00731286,0.2892282,0.028762136,0.064981125,-0.058589537,0.049081136,-0.19033903,10.523713
1742312579.5505846,-0.957211,-0.002489172,-0.0073941913,0.28928578,0.003195793,0.09587379,-0.055393744,0.049081136,-0.19033903,10.523713
1742312579.5529099,-0.95719194,-0.0025576113,-0.0075073713,0.28934556,0.027696872,0.11185275,-0.06817692,0.049081136,-0.19033903,10.523713
1742312579.5548396,-0.9571795,-0.0025960957,-0.007550155,0.2893851,0.033023193,0.091612734,-0.08522114,-0.09935937,-0.12330139,10.590752
1742312579.556434,-0.9571506,-0.0027044853,-0.0076756245,0.28947657,0.025566343,0.09587379,-0.053263217,-0.09935937,-0.12330139,10.590752
1742312579.558871,-0.9571292,-0.0027880946,-0.0077566486,0.2895443,0.055393744,0.079894826,-0.07882956,-0.02633622,-0.22625206,10.469844
1742312579.56049,-0.957106,-0.0028580544,-0.007814788,0.28961858,0.040480044,0.06711165,-0.08415588,-0.02633622,-0.22625206,10.469844
1742312579.5627131,-0.95708513,-0.0029389593,-0.007877717,0.2896852,0.045806367,0.07350324,-0.0745685,-0.02633622,-0.22625206,10.469844
1742312579.5645318,-0.9570639,-0.0030215045,-0.007919185,0.28975323,0.05432848,0.040480044,-0.07137271,0.1604115,-0.33877954,9.835381
1742312579.5665195,-0.95704156,-0.0031024897,-0.007950606,0.28982532,0.05645901,0.0447411,-0.077764295,0.1604115,-0.33877954,9.835381
1742312579.568849,-0.95702046,-0.003189489,-0.0079659885,0.28989372,0.059654802,0.021305285,-0.07882956,0.108936176,-0.51355624,9.828198
1742312579.5704489,-0.9569987,-0.0032792385,-0.007975944,0.28996417,0.08096009,0.012783172,-0.07669903,0.108936176,-0.51355624,9.828198
1742312579.5726945,-0.9569768,-0.0033809822,-0.0079882825,0.29003513,0.090547465,0.025566343,-0.07882956,0.108936176,-0.51355624,9.828198
1742312579.575772,-0.95695627,-0.0034843073,-0.008005174,0.29010102,0.08309062,0.026631609,-0.075633764,0.08499416,-0.5482722,9.892841
1742312579.5773547,-0.9569345,-0.0035837279,-0.008009864,0.2901714,0.090547465,0.012783172,-0.08096009,0.08499416,-0.5482722,9.892841
1742312579.5792673,-0.9569039,-0.003724789,-0.008031789,0.29026997,0.08841694,0.028762136,-0.0745685,-0.05267244,-0.17597382,9.636662
1742312579.5806212,-0.95689446,-0.003768804,-0.008044361,0.29030013,0.06817692,0.03515372,-0.06604639,-0.05267244,-0.17597382,9.636662
1742312579.5829182,-0.95687675,-0.0038441436,-0.008055314,0.2903573,0.060720067,0.010652643,-0.06178533,-0.05626374,-0.14724341,9.3182335
1742312579.5846655,-0.956857,-0.0039178086,-0.008078774,0.29042065,0.05219795,0.038349517,-0.064981125,-0.05626374,-0.14724341,9.3182335
1742312579.5868554,-0.95684,-0.0039909934,-0.008109967,0.29047483,0.04900216,0.033023193,-0.060720067,-0.05626374,-0.14724341,9.3182335
1742312579.588804,-0.9568237,-0.0040579303,-0.008120582,0.2905274,0.059654802,0.012783172,-0.05645901,0.08619126,-0.2753332,9.040505
1742312579.5905197,-0.9568086,-0.0041154167,-0.008129882,0.29057592,0.03515372,0.01704423,-0.05006742,0.08619126,-0.2753332,9.040505
1742312579.592957,-0.9567929,-0.004171031,-0.008129199,0.29062694,0.03941478,-0.0010652643,-0.06178533,0.30286652,-0.107739076,8.073248
1742312579.5946145,-0.9567778,-0.004219838,-0.008128342,0.2906759,0.031957928,-0.0010652643,-0.055393744,0.30286652,-0.107739076,8.073248
1742312579.596853,-0.9567652,-0.0042732977,-0.008126831,0.29071674,0.026631609,0.01704423,-0.04261057,0.30286652,-0.107739076,8.073248
1742312579.5988524,-0.9567509,-0.0043104477,-0.008109492,0.29076362,0.027696872,-0.029827401,-0.047936894,0.4309563,0.0047884034,8.154651
1742312579.6006207,-0.95674,-0.0043284087,-0.008116373,0.29079887,0.006391586,0.019174758,-0.04261057,0.4309563,0.0047884034,8.154651
1742312579.6031134,-0.95672816,-0.004340326,-0.008106852,0.29083815,0.003195793,-0.028762136,-0.04687163,0.41060558,-0.008379706,8.273164
1742312579.6055043,-0.95672476,-0.0043493696,-0.008097047,0.29084936,0.009587379,-0.02237055,-0.026631609,0.41060558,-0.008379706,8.273164
1742312579.6073072,-0.9567066,-0.0043366714,-0.0080920365,0.29090965,-0.012783172,-0.0053263213,-0.038349517,0.41060558,-0.008379706,8.273164
1742312579.6090393,-0.9566957,-0.0043307804,-0.008097256,0.29094538,-0.023435814,-0.021305285,-0.040480044,0.2861071,0.130484,8.336611
1742312579.610695,-0.95668346,-0.0043251435,-0.008096933,0.29098573,-0.031957928,-0.008522115,-0.03515372,0.2861071,0.130484,8.336611
1742312579.6132772,-0.95667464,-0.004308621,-0.008117323,0.29101443,-0.038349517,0.019174758,-0.033023193,0.33997664,-0.33638534,8.808268
1742312579.6148162,-0.9566667,-0.0042996923,-0.008134783,0.29104006,-0.03408846,0.003195793,-0.031957928,0.33997664,-0.33638534,8.808268
1742312579.6171439,-0.95665884,-0.0043030744,-0.008172933,0.29106477,-0.010652643,0.04261057,-0.023435814,0.33997664,-0.33638534,8.808268
1742312579.6192236,-0.9566522,-0.0043026987,-0.008227686,0.29108495,-0.021305285,0.045806367,-0.02237055,0.36511576,-0.18674773,8.771158
1742312579.6206174,-0.9566464,-0.00429326,-0.008240508,0.29110393,-0.021305285,-0.010652643,-0.026631609,0.36511576,-0.18674773,8.771158
1742312579.6230505,-0.95663774,-0.004273963,-0.008261077,0.29113218,-0.03515372,0.0053263213,-0.031957928,0.4261679,-0.038307227,8.668207
1742312579.6255398,-0.95662916,-0.004251841,-0.008299946,0.29115945,-0.04900216,0.020240022,-0.026631609,0.4261679,-0.038307227,8.668207
1742312579.6266837,-0.95661855,-0.0042498847,-0.008332312,0.2911933,-0.013848436,0.02450108,-0.0447411,0.4261679,-0.038307227,8.668207
1742312579.6288512,-0.95661074,-0.0042659175,-0.008363778,0.29121795,-0.0021305287,0.028762136,-0.021305285,0.35314476,-0.16759412,9.082404
1742312579.6305928,-0.9566046,-0.0042712726,-0.008391994,0.29123703,-0.021305285,0.021305285,-0.025566343,0.35314476,-0.16759412,9.082404
1742312579.6330109,-0.9565945,-0.004274247,-0.00840855,0.2912698,-0.01704423,0.003195793,-0.03941478,0.46926352,-0.45848963,8.834604
1742312579.634651,-0.95658386,-0.004276443,-0.008427115,0.2913041,-0.009587379,0.015978964,-0.04261057,0.46926352,-0.45848963,8.834604
1742312579.6365356,-0.9565724,-0.0042911097,-0.008466558,0.2913406,-0.003195793,0.045806367,-0.03728425,0.46926352,-0.45848963,8.834604
1742312579.6389418,-0.95656323,-0.004310341,-0.008488845,0.29136986,0.0021305287,0.030892665,-0.03515372,0.79607207,-0.2705448,9.284714
1742312579.6407468,-0.95655364,-0.0043155877,-0.008508988,0.29140064,-0.011717907,0.011717907,-0.036218986,0.79607207,-0.2705448,9.284714
1742312579.643215,-0.9565444,-0.004307656,-0.008531121,0.2914304,-0.027696872,0.02237055,-0.029827401,0.6584055,-0.18674773,9.631873
1742312579.6448605,-0.9565387,-0.0043202834,-0.008571905,0.291448,-0.0021305287,0.045806367,-0.021305285,0.6584055,-0.18674773,9.631873
1742312579.6473732,-0.9565265,-0.0043729697,-0.008623976,0.29148558,0.021305285,0.030892665,-0.038349517,0.47524905,-0.16998832,9.720459
1742312579.6492403,-0.9565212,-0.004373691,-0.008640377,0.29150257,-0.019174758,0.028762136,-0.038349517,0.47524905,-0.16998832,9.720459
1742312579.6505585,-0.9565124,-0.004391275,-0.00867984,0.29152983,0.008522115,0.029827401,-0.030892665,0.47524905,-0.16998832,9.720459
1742312579.6529503,-0.9565038,-0.0044144983,-0.008701556,0.29155704,-0.010652643,0.030892665,-0.031957928,0.7613561,-0.4405331,9.67018
1742312579.6549335,-0.956496,-0.0044308747,-0.008725704,0.2915817,-0.006391586,0.03408846,-0.029827401,0.7613561,-0.4405331,9.67018
1742312579.6566508,-0.95648986,-0.0044510025,-0.008793778,0.29159942,-0.0010652643,0.07137271,-0.023435814,0.7613561,-0.4405331,9.67018
1742312579.6587415,-0.956484,-0.004480425,-0.008828003,0.29161704,0.0,0.03515372,-0.025566343,0.88944596,-0.39025488,9.605537
1742312579.660712,-0.9564764,-0.0044850847,-0.008873303,0.29164025,-0.0053263213,0.033023193,-0.023435814,0.88944596,-0.39025488,9.605537
1742312579.662845,-0.9564699,-0.0044902265,-0.008941824,0.2916595,-0.015978964,0.06924218,-0.029827401,0.7793127,-0.090979666,9.576807
1742312579.6649468,-0.9564637,-0.0045270063,-0.00900498,0.2916772,-0.0021305287,0.07243797,-0.01704423,0.7793127,-0.090979666,9.576807
1742312579.66695,-0.95645744,-0.0045613693,-0.009050342,0.29169586,0.006391586,0.047936894,-0.026631609,0.7793127,-0.090979666,9.576807
1742312579.6688359,-0.95644736,-0.0045903414,-0.0091003245,0.2917274,-0.013848436,0.043675836,-0.029827401,0.8415619,-0.37708676,9.346964
1742312579.670731,-0.9564456,-0.0045917016,-0.009121042,0.2917321,-0.019174758,0.04154531,-0.012783172,0.8415619,-0.37708676,9.346964
1742312579.672968,-0.9564396,-0.004581948,-0.009157628,0.2917507,-0.02450108,0.027696872,-0.026631609,1.3359646,0.11851298,8.955511
1742312579.674756,-0.9564346,-0.0045770793,-0.009147142,0.29176766,-0.009587379,-0.012783172,-0.023435814,1.3359646,0.11851298,8.955511
1742312579.6772382,-0.9564269,-0.004581152,-0.00909546,0.29179415,0.015978964,-0.051132686,-0.03728425,1.6232687,-0.10534488,7.9810715
