timestamp,orientation_x,orientation_y,orientation_z,orientation_w,angular_vel_x,angular_vel_y,angular_vel_z,linear_acc_x,linear_acc_y,linear_acc_z
1742312693.6315055,-0.93617725,-0.0016291856,-0.008594713,0.3514198,0.0447411,0.027696872,0.040480044,0.1340753,-0.020350715,10.346542
1742312693.633403,-0.9361938,-0.001647265,-0.008611944,0.35137516,0.0042610574,0.0053263213,0.03941478,0.1340753,-0.020350715,10.346542
1742312693.6353836,-0.9362071,-0.0016488079,-0.00860569,0.3513398,-0.0053263213,-0.015978964,0.026631609,0.49919105,0.5650316,10.443508
1742312693.637503,-0.93621355,-0.0016516863,-0.0085969055,0.35132286,-0.0074568503,-0.02450108,0.033023193,0.49919105,0.5650316,10.443508
1742312693.639308,-0.93624085,-0.0016308783,-0.008573014,0.35125047,-0.05006742,-0.020240022,0.04900216,0.34955344,0.04189853,9.629479
1742312693.641241,-0.93625945,-0.0016147592,-0.0085579585,0.3512016,-0.05219795,-0.026631609,0.051132686,0.34955344,0.04189853,9.629479
1742312693.6437616,-0.9362675,-0.0015976559,-0.008549501,0.35118064,-0.045806367,-0.03728425,0.04154531,0.34955344,0.04189853,9.629479
1742312693.6452148,-0.93629396,-0.0015514117,-0.008496499,0.35111105,-0.033023193,-0.055393744,0.045806367,0.39743748,0.062249243,9.562442
1742312693.6474173,-0.9363093,-0.0015205283,-0.008446067,0.35107142,-0.02450108,-0.06711165,0.036218986,0.39743748,0.062249243,9.562442
1742312693.6493518,-0.936315,-0.0014979219,-0.008433014,0.35105696,-0.05219795,-0.04900216,0.027696872,0.45130703,0.05267244,9.097966
1742312693.6512117,-0.9363316,-0.0014278202,-0.00837931,0.35101375,-0.03408846,-0.07030744,0.028762136,0.45130703,0.05267244,9.097966
1742312693.653264,-0.93634325,-0.0013858082,-0.0083306385,0.35098413,-0.029827401,-0.06924218,0.025566343,0.51235914,-0.41180268,8.7125
1742312693.655373,-0.9363545,-0.0013775574,-0.008277258,0.3509555,-0.0074568503,-0.063915856,0.030892665,0.51235914,-0.41180268,8.7125
1742312693.6571548,-0.9363691,-0.0013601996,-0.008222361,0.35091788,-0.009587379,-0.075633764,0.03728425,0.51235914,-0.41180268,8.7125
1742312693.6593668,-0.93637407,-0.0013594513,-0.008190711,0.3509058,0.0074568503,-0.06604639,0.02237055,0.61411273,-0.5793968,8.1079645
1742312693.6614366,-0.9363885,-0.0013431236,-0.008082668,0.35086942,0.02450108,-0.079894826,0.015978964,0.61411273,-0.5793968,8.1079645
1742312693.663274,-0.93639624,-0.0013348899,-0.008024355,0.3508503,0.012783172,-0.05752427,0.011717907,0.8415619,-0.18195933,8.346188
1742312693.6653728,-0.9364012,-0.0013288705,-0.007985791,0.3508378,-0.0149137005,-0.04154531,0.009587379,0.8415619,-0.18195933,8.346188
1742312693.6674256,-0.9364068,-0.001303286,-0.007937956,0.35082424,-0.013848436,-0.060720067,0.012783172,0.8415619,-0.18195933,8.346188
1742312693.669104,-0.9364104,-0.0012613165,-0.007909488,0.35081527,-0.040480044,-0.036218986,0.0074568503,0.8523358,0.25378537,8.785523
1742312693.671186,-0.9364116,-0.0012449756,-0.007864923,0.3508132,-0.021305285,-0.05219795,-0.008522115,0.8523358,0.25378537,8.785523
1742312693.6731513,-0.9364088,-0.0012326719,-0.007823979,0.3508216,-0.006391586,-0.04261057,-0.015978964,0.6607997,-0.31603462,7.896077
1742312693.6751878,-0.9364073,-0.0012357968,-0.007812847,0.35082564,-0.0010652643,-0.018109493,-0.011717907,0.6607997,-0.31603462,7.896077
1742312693.677128,-0.9364091,-0.0012472819,-0.007792545,0.35082138,0.012783172,-0.006391586,0.0042610574,0.6607997,-0.31603462,7.896077
1742312693.679149,-0.93640697,-0.0012499483,-0.0077773966,0.3508274,0.003195793,-0.025566343,-0.015978964,0.8391677,-0.50397944,7.98586
1742312693.6814666,-0.93640006,-0.0013015615,-0.007722491,0.3508469,0.025566343,-0.019174758,-0.011717907,0.8391677,-0.50397944,7.98586
1742312693.6834183,-0.9363938,-0.0013251958,-0.00766535,0.35086477,0.029827401,-0.047936894,-0.01704423,1.0390835,-0.32800564,7.7308774
1742312693.685588,-0.93638885,-0.0013468876,-0.0076142983,0.35087916,0.019174758,-0.026631609,-0.021305285,1.0390835,-0.32800564,7.7308774
1742312693.687579,-0.936385,-0.0013667579,-0.007569552,0.35089013,0.021305285,-0.038349517,-0.010652643,1.0390835,-0.32800564,7.7308774
1742312693.6893876,-0.9363837,-0.0013784182,-0.0075109066,0.35089505,0.006391586,-0.043675836,-0.012783172,1.2389994,-0.18315643,7.9391727
1742312693.691527,-0.93638223,-0.0014023685,-0.0074699805,0.3508996,0.03515372,-0.011717907,-0.008522115,1.2389994,-0.18315643,7.9391727
1742312693.6934423,-0.93638074,-0.0014101292,-0.007435115,0.35090417,0.006391586,-0.031957928,-0.006391586,1.2306197,-0.29448682,8.656237
1742312693.6958318,-0.93637896,-0.0014076753,-0.0074035246,0.35090977,0.006391586,-0.01704423,-0.006391586,1.2306197,-0.29448682,8.656237
1742312693.6975176,-0.93637764,-0.0014186851,-0.007385255,0.35091347,0.019174758,0.0010652643,-0.009587379,1.2306197,-0.29448682,8.656237
1742312693.699198,-0.9363751,-0.0014419155,-0.007368323,0.35092068,0.018109493,-0.01704423,-0.0074568503,1.0235212,-0.48841715,8.359355
1742312693.7012312,-0.9363758,-0.0014347113,-0.00733941,0.3509193,-0.02450108,-0.02450108,0.0010652643,1.0235212,-0.48841715,8.359355
1742312693.7033591,-0.9363817,-0.0013740836,-0.007327227,0.3509041,-0.07669903,-0.028762136,0.020240022,1.316811,0.12330139,8.384495
1742312693.7052898,-0.9363804,-0.0012907748,-0.007334808,0.350908,-0.092677996,-0.008522115,-0.011717907,1.316811,0.12330139,8.384495
1742312693.7072825,-0.9363746,-0.0012316745,-0.0073488452,0.3509234,-0.07243797,0.0074568503,-0.02237055,1.316811,0.12330139,8.384495
1742312693.7091901,-0.9363648,-0.0011834668,-0.0073402626,0.3509496,-0.045806367,-0.02237055,-0.03408846,1.258153,0.48722005,8.88608
1742312693.7111464,-0.9363525,-0.0011354001,-0.0073355134,0.35098282,-0.062850595,-0.015978964,-0.0447411,1.258153,0.48722005,8.88608
1742312693.7132657,-0.9363458,-0.0011097791,-0.007341113,0.35100046,-0.07137271,0.0042610574,-0.040480044,1.258153,0.48722005,8.88608
1742312693.7152336,-0.9363301,-0.0010836556,-0.007349464,0.3510424,-0.038349517,0.008522115,-0.026631609,1.388637,0.09696517,9.457097
1742312693.7174199,-0.9363237,-0.001080168,-0.0073459866,0.3510595,-0.023435814,0.003195793,-0.03941478,1.388637,0.09696517,9.457097
1742312693.7192066,-0.9363164,-0.0010315353,-0.007387353,0.35107824,-0.06711165,0.03408846,-0.008522115,1.3754689,-0.7266402,8.9602995
1742312693.7212682,-0.9363109,-0.000985523,-0.0074184327,0.35109228,-0.0745685,0.018109493,-0.021305285,1.3754689,-0.7266402,8.9602995
1742312693.7232184,-0.93630797,-0.00093433005,-0.007445408,0.35109982,-0.06817692,0.023435814,-0.009587379,1.5753847,-0.20111294,9.352949
1742312693.7252827,-0.9362995,-0.00091055356,-0.00749925,0.35112152,-0.0447411,0.06924218,-0.023435814,1.5753847,-0.20111294,9.352949
1742312693.7273576,-0.9362878,-0.0008766144,-0.0075481874,0.35115167,-0.04900216,0.03728425,-0.033023193,1.5753847,-0.20111294,9.352949
1742312693.7296658,-0.93627983,-0.0007946829,-0.007499672,0.35117412,-0.08309062,-0.0894822,-0.02237055,1.602918,-0.08619126,9.303867
1742312693.731463,-0.9362746,-0.00066189986,-0.0074476236,0.35118958,-0.1310275,-0.07030744,-0.018109493,1.602918,-0.08619126,9.303867
1742312693.7332933,-0.93627244,-0.00059879926,-0.0074344524,0.35119566,-0.1225054,-0.053263217,-0.015978964,1.602918,-0.08619126,9.303867
1742312693.7352705,-0.93626374,-0.000371776,-0.0073412093,0.35122105,-0.12570119,-0.11824434,-0.023435814,2.6420016,0.19991584,7.443573
1742312693.7372425,-0.9362542,-0.0002202068,-0.007191516,0.35124984,-0.10333064,-0.17576861,-0.033023193,2.6420016,0.19991584,7.443573
1742312693.739358,-0.936248,-0.00013096907,-0.0071163746,0.35126796,-0.1310275,-0.17257282,-0.04261057,2.7844565,-0.1328782,8.139089
1742312693.74133,-0.93623114,4.905808e-05,-0.0069900462,0.35131544,-0.13635384,-0.13741909,-0.06178533,2.7844565,-0.1328782,8.139089
1742312693.7432868,-0.9362018,0.0002703868,-0.0067522814,0.3513983,-0.07030744,-0.19174758,-0.07030744,2.6384103,-0.37229836,9.503783
1742312693.7454786,-0.93618065,0.00036541422,-0.0065678577,0.35145772,-0.018109493,-0.15659386,-0.059654802,2.6384103,-0.37229836,9.503783
1742312693.7476926,-0.936164,0.00037294006,-0.0063364725,0.3515063,0.1043959,-0.20133495,-0.055393744,0.78050977,-4.132392,10.721235
1742312693.7493176,-0.9361506,0.00022028256,-0.005890173,0.35155034,0.3813646,-0.37497303,-0.047936894,0.78050977,-4.132392,10.721235
1742312693.751483,-0.9361494,7.1935676e-05,-0.0056328117,0.3515577,0.47297737,-0.35686356,-0.023435814,0.78050977,-4.132392,10.721235
1742312693.7535093,-0.93615556,-0.00027617576,-0.0052701114,0.3515465,0.46019417,-0.16831176,0.011717907,-2.1428106,-5.9268465,18.076223
1742312693.7552245,-0.93610907,-0.0008139158,-0.004681828,0.35167798,0.43036678,-0.22050971,-0.1640507,-2.1428106,-5.9268465,18.076223
1742312693.7573225,-0.93603796,-0.0010592835,-0.004312619,0.35187137,0.30679613,-0.262055,-0.23222762,-1.103727,4.047398,26.676195
1742312693.7592034,-0.93593043,-0.0011834602,-0.004231437,0.3521575,0.15765911,-0.02450108,-0.33023193,-1.103727,4.047398,26.676195
1742312693.7612462,-0.93583167,-0.001455327,-0.0042664763,0.35241875,0.2663161,0.11717907,-0.2801645,-1.103727,4.047398,26.676195
1742312693.763232,-0.9357322,-0.0016542207,-0.0044101547,0.35267997,0.079894826,0.14061488,-0.2865561,0.60693014,2.5845408,24.050953
1742312693.7652912,-0.9356023,-0.001568808,-0.0045337453,0.35302302,-0.19920443,0.045806367,-0.3856257,0.60693014,2.5845408,24.050953
1742312693.7675266,-0.93553543,-0.0015344305,-0.00462256,0.35319924,-0.15339807,0.12783171,-0.37816882,0.60693014,2.5845408,24.050953
1742312693.7694182,-0.9353779,-0.0013285562,-0.0050763492,0.35361075,-0.09480853,0.03515372,-0.31105718,-0.034715924,1.9069817,13.754689
1742312693.7712603,-0.9352513,-0.0011222854,-0.005067001,0.35394648,-0.33768877,-0.03515372,-0.35899407,-0.034715924,1.9069817,13.754689
1742312693.7734363,-0.93515337,-0.0011073384,-0.0052330424,0.3542029,-0.04261057,0.18322547,-0.2599245,-0.20829555,-2.718616,8.896853
1742312693.77521,-0.93506217,-0.0010172086,-0.005431615,0.3544412,-0.14700648,0.08415588,-0.2663161,-0.20829555,-2.718616,8.896853
1742312693.7771132,-0.934956,-0.00088825484,-0.0053361063,0.35472253,-0.12357066,-0.149137,-0.3014698,-2.2134395,-0.44891283,5.8466406
1742312693.7792203,-0.93485934,-0.00083250157,-0.0052816826,0.35497814,0.03941478,-0.10333064,-0.27057713,-2.2134395,-0.44891283,5.8466406
1742312693.7812037,-0.93475676,-0.0009005247,-0.0052749463,0.35524824,0.04900216,0.028762136,-0.29720876,-2.2134395,-0.44891283,5.8466406
1742312693.7832458,-0.93465805,-0.0011214217,-0.0052621895,0.35550752,0.19920443,0.019174758,-0.27377293,-0.65242,-0.016759412,4.983531
1742312693.7854767,-0.93456846,-0.0012574506,-0.0052782595,0.35574225,0.08628641,0.003195793,-0.25566342,-0.65242,-0.016759412,4.983531
1742312693.7873802,-0.9344754,-0.0013753898,-0.005277306,0.3559858,0.06604639,0.059654802,-0.25779396,0.35314476,0.9540894,10.047267
1742312693.7895122,-0.9344293,-0.001430024,-0.0053078476,0.35610634,0.062850595,0.06711165,-0.26098976,0.35314476,0.9540894,10.047267
1742312693.7913473,-0.93430847,-0.0017541855,-0.005240066,0.35642272,0.16298544,0.010652643,-0.21624866,0.35314476,0.9540894,10.047267
1742312693.7932796,-0.9342391,-0.0019316005,-0.005156262,0.35660487,0.16618124,-0.026631609,-0.20346548,0.16400282,-0.85473,8.020576
1742312693.7952695,-0.93417114,-0.0020547938,-0.0051585776,0.3567823,0.12357066,0.025566343,-0.20240022,0.16400282,-0.85473,8.020576
1742312693.7974908,-0.9341032,-0.002201122,-0.0051296703,0.3569599,0.091612734,0.02450108,-0.18429072,-0.47644615,-0.32680854,4.6926355
1742312693.7992406,-0.9340423,-0.0023357344,-0.005062962,0.35711938,0.15552859,-0.064981125,-0.16831176,-0.47644615,-0.32680854,4.6926355
1742312693.8012664,-0.9339858,-0.0023889963,-0.005031149,0.35726675,0.02237055,-0.027696872,-0.15872438,-0.47644615,-0.32680854,4.6926355
1742312693.8032792,-0.933957,-0.0024274774,-0.0049888636,0.3573425,0.08841694,-0.0745685,-0.16618124,-0.050278235,1.1145009,8.032547
1742312693.805124,-0.9338707,-0.0025233096,-0.004879595,0.35756886,0.08309062,-0.079894826,-0.1640507,-0.050278235,1.1145009,8.032547
1742312693.807162,-0.933819,-0.0026206244,-0.004757795,0.35770464,0.092677996,-0.09374326,-0.14487594,0.17956513,0.39384618,5.9902925
1742312693.8091433,-0.933772,-0.0027353999,-0.0046470356,0.35782796,0.14594121,-0.07882956,-0.13209277,0.17956513,0.39384618,5.9902925
1742312693.8112092,-0.93374753,-0.0027768293,-0.0046185576,0.35789186,0.07137271,-0.04154531,-0.14061488,0.17956513,0.39384618,5.9902925
1742312693.8131447,-0.93367416,-0.0029479016,-0.0044895597,0.35808355,0.09480853,-0.05432848,-0.14487594,0.47884035,0.29448682,6.9743094
1742312693.8153152,-0.93362665,-0.003001338,-0.004398391,0.35820824,0.055393744,-0.11291802,-0.1310275,0.47884035,0.29448682,6.9743094
1742312693.8172684,-0.9335786,-0.0030202768,-0.0043250737,0.35833406,-0.009587379,-0.05219795,-0.149137,0.25498247,1.0845734,8.194156
1742312693.8192828,-0.9335593,-0.0030348254,-0.004293608,0.3583846,0.020240022,-0.059654802,-0.11185275,0.25498247,1.0845734,8.194156
1742312693.8211977,-0.933495,-0.003076152,-0.0041888766,0.35855296,0.009587379,-0.06178533,-0.11398328,0.25498247,1.0845734,8.194156
1742312693.8232703,-0.933475,-0.0030881069,-0.0041487683,0.35860544,0.019174758,-0.075633764,-0.11611381,0.88944596,0.107739076,8.003817
1742312693.8252945,-0.93342066,-0.0031055633,-0.004098309,0.3587474,0.011717907,-0.03408846,-0.11078749,0.88944596,0.107739076,8.003817
1742312693.8273857,-0.93338346,-0.0031152912,-0.004069869,0.35884425,-0.018109493,-0.021305285,-0.11078749,0.50757074,0.45609543,7.961918
1742312693.8294213,-0.9333473,-0.0031482324,-0.0040348074,0.3589385,0.01704423,-0.0053263213,-0.10120011,0.50757074,0.45609543,7.961918
1742312693.8315024,-0.93331456,-0.0031607682,-0.004032147,0.35902354,-0.010652643,0.0010652643,-0.0894822,0.25019407,0.7350199,9.994595
1742312693.8335075,-0.9332992,-0.0031618653,-0.004034379,0.35906336,-0.027696872,-0.0010652643,-0.08841694,0.25019407,0.7350199,9.994595
1742312693.8351932,-0.9332578,-0.0031589016,-0.004112974,0.35916987,-0.031957928,0.03515372,-0.07882956,0.25019407,0.7350199,9.994595
1742312693.8371837,-0.9332278,-0.0031595335,-0.004197708,0.35924706,-0.08309062,0.07350324,-0.08309062,0.7026982,0.33997664,9.0081835
1742312693.8393903,-0.9332133,-0.0031766777,-0.004221732,0.35928392,-0.012783172,0.051132686,-0.08202535,0.7026982,0.33997664,9.0081835
1742312693.841214,-0.93317634,-0.0031989436,-0.0043708505,0.3593784,-0.051132686,0.0894822,-0.05752427,0.39145198,-0.059855044,9.333796
1742312693.8431306,-0.93315655,-0.0032011846,-0.0044512115,0.35942864,-0.05645901,0.08202535,-0.055393744,0.39145198,-0.059855044,9.333796
1742312693.8456328,-0.9331332,-0.00320138,-0.0045636203,0.35948753,-0.05006742,0.10226537,-0.07030744,0.39145198,-0.059855044,9.333796
1742312693.8478255,-0.9331106,-0.003205358,-0.0046909903,0.35954452,-0.06924218,0.11717907,-0.064981125,0.22266077,0.30765492,9.500193
1742312693.8498044,-0.9330874,-0.003222404,-0.0048251185,0.359603,-0.05752427,0.13635384,-0.060720067,0.22266077,0.30765492,9.500193
1742312693.851426,-0.9330659,-0.0032276104,-0.0049579875,0.359657,-0.05645901,0.12463593,-0.059654802,0.51954174,0.2645593,9.782708
1742312693.853717,-0.93304414,-0.0032520124,-0.0051068407,0.35971102,-0.05752427,0.14487594,-0.059654802,0.51954174,0.2645593,9.782708
1742312693.8558474,-0.933034,-0.0032634847,-0.0051728114,0.35973626,-0.047936894,0.12357066,-0.05645901,0.51954174,0.2645593,9.782708
1742312693.8578138,-0.93300146,-0.0033149896,-0.0053541893,0.35981777,-0.030892665,0.121440135,-0.051132686,0.37349546,-0.22984336,9.370906
1742312693.8596213,-0.932985,-0.0033858742,-0.005459783,0.35985804,0.003195793,0.120374866,-0.05006742,0.37349546,-0.22984336,9.370906
1742312693.8613555,-0.93297607,-0.00341861,-0.0055159316,0.35988018,0.003195793,0.120374866,-0.05006742,0.37349546,-0.22984336,9.370906
1742312693.863509,-0.9329503,-0.0034921567,-0.005661494,0.35994402,-0.028762136,0.10865696,-0.0447411,0.09935937,-0.4429273,9.205706
1742312693.865746,-0.93293077,-0.0035587964,-0.0057689208,0.3599922,0.020240022,0.12570119,-0.05432848,0.09935937,-0.4429273,9.205706
1742312693.8678942,-0.93291104,-0.003631799,-0.0058763972,0.36004087,0.027696872,0.10226537,-0.05219795,0.089782566,-0.17477672,9.218874
1742312693.869632,-0.9328958,-0.0037119917,-0.0059453,0.3600784,0.029827401,0.06924218,-0.036218986,0.089782566,-0.17477672,9.218874
1742312693.871409,-0.9328796,-0.0037967884,-0.0059859995,0.36011872,0.051132686,0.05219795,-0.04687163,0.17956513,-0.50397944,9.14226
1742312693.87376,-0.93286633,-0.0038640003,-0.00605016,0.3601513,0.030892665,0.077764295,-0.030892665,0.17956513,-0.50397944,9.14226
1742312693.8757145,-0.9328496,-0.003959471,-0.0060885274,0.3601931,0.07030744,0.063915856,-0.04900216,0.17956513,-0.50397944,9.14226
1742312693.8778398,-0.93284315,-0.004003325,-0.006103993,0.36020905,0.06178533,0.047936894,-0.03728425,0.03232172,-0.52073884,8.625112
1742312693.8795702,-0.93282783,-0.0041616457,-0.006143843,0.3602463,0.07669903,0.045806367,-0.033023193,0.03232172,-0.52073884,8.625112
1742312693.881327,-0.9328205,-0.004262933,-0.0061642327,0.36026365,0.08522114,0.033023193,-0.018109493,0.2657564,-0.724246,8.854955
1742312693.88381,-0.93281716,-0.0043173074,-0.0061730356,0.36027157,0.0894822,0.04261057,-0.020240022,0.2657564,-0.724246,8.854955
1742312693.8853743,-0.93281007,-0.004483076,-0.006196539,0.3602874,0.08096009,0.03728425,-0.018109493,0.2657564,-0.724246,8.854955
1742312693.887655,-0.93280774,-0.004538467,-0.0061980407,0.3602928,0.09800432,0.029827401,-0.0149137005,-0.088585466,-0.32441434,8.531737
1742312693.8895109,-0.9328021,-0.004660905,-0.006193088,0.36030605,0.063915856,0.006391586,-0.009587379,-0.088585466,-0.32441434,8.531737
1742312693.891316,-0.9327997,-0.004743685,-0.0061787,0.3603114,0.06924218,0.0010652643,-0.003195793,0.034715924,-0.15322891,7.8829093
1742312693.8937576,-0.9328,-0.0048373,-0.0061585917,0.3603097,0.08628641,-0.0042610574,-0.0010652643,0.034715924,-0.15322891,7.8829093
1742312693.8954668,-0.93280256,-0.004915546,-0.0061348584,0.36030254,0.08309062,-0.023435814,0.011717907,0.034715924,-0.15322891,7.8829093
1742312693.8976293,-0.93280476,-0.004968977,-0.0061059548,0.36029643,0.05752427,-0.029827401,0.0010652643,0.33758244,-0.18555063,7.6255326
1742312693.899744,-0.9328053,-0.0050283587,-0.006055792,0.36029518,0.06924218,-0.03408846,0.0021305287,0.33758244,-0.18555063,7.6255326
1742312693.9015071,-0.9328085,-0.0050766594,-0.006022589,0.3602866,0.03408846,-0.010652643,0.010652643,0.3842694,0.03232172,7.9236107
1742312693.9034426,-0.9328164,-0.005114516,-0.0059736194,0.3602665,0.03728425,-0.04687163,0.02237055,0.3842694,0.03232172,7.9236107
1742312693.9053607,-0.93282163,-0.0051368824,-0.0059569273,0.36025304,0.04261057,-0.025566343,0.025566343,0.3842694,0.03232172,7.9236107
1742312693.907764,-0.93283415,-0.005197456,-0.005887211,0.3602209,0.043675836,-0.030892665,0.01704423,0.51116204,-0.06823475,7.8769236
1742312693.9097435,-0.93284196,-0.005220116,-0.005845558,0.3602009,0.02237055,-0.040480044,0.018109493,0.51116204,-0.06823475,7.8769236
1742312693.912023,-0.93284434,-0.005225956,-0.0058301897,0.3601949,0.009587379,-0.031957928,0.009587379,0.51116204,-0.06823475,7.8769236
1742312693.913647,-0.9328572,-0.0052037463,-0.0057190787,0.3601633,-0.013848436,-0.092677996,0.015978964,0.51355624,-0.15442601,8.070854
1742312693.9159925,-0.9328619,-0.0052130343,-0.0056806435,0.36015183,0.033023193,-0.07137271,0.021305285,0.51355624,-0.15442601,8.070854
1742312693.9175417,-0.9328819,-0.005199935,-0.0056211255,0.36010104,0.015978964,-0.04261057,0.028762136,0.37948096,-0.60573304,8.413225
1742312693.9197683,-0.9328988,-0.0051803095,-0.0056034173,0.3600579,-0.01704423,-0.023435814,0.04900216,0.37948096,-0.60573304,8.413225
1742312693.9218178,-0.93290746,-0.0051824683,-0.0055829533,0.360036,0.010652643,-0.043675836,0.043675836,0.34715924,-0.22146365,8.6095495
1742312693.9239042,-0.93292224,-0.0052017006,-0.0055325306,0.35999808,0.0074568503,-0.04261057,0.036218986,0.34715924,-0.22146365,8.6095495
1742312693.9251766,-0.9329337,-0.0052086264,-0.005470008,0.3599696,0.040480044,-0.05006742,0.019174758,0.34715924,-0.22146365,8.6095495
1742312693.927333,-0.9329461,-0.005186543,-0.005423001,0.35993826,0.010652643,-0.0745685,0.025566343,0.78888947,-0.48003745,8.37372
1742312693.9295404,-0.93296903,-0.0050946204,-0.0052783573,0.35988194,-0.0447411,-0.09480853,0.03408846,0.78888947,-0.48003745,8.37372
1742312693.931384,-0.93297666,-0.0050778817,-0.005237911,0.35986352,-0.009587379,-0.090547465,0.036218986,0.91578215,-0.034715924,8.738836
1742312693.9334905,-0.9330006,-0.0050519663,-0.005111973,0.35980305,0.011717907,-0.09800432,0.04154531,0.91578215,-0.034715924,8.738836
1742312693.9352891,-0.93301797,-0.005002277,-0.005017051,0.3597602,-0.013848436,-0.10333064,0.045806367,1.2401965,-0.41060558,8.7292595
1742312693.9375155,-0.93303263,-0.0049528773,-0.004907134,0.35972425,-0.021305285,-0.12357066,0.02450108,1.2401965,-0.41060558,8.7292595
1742312693.9394753,-0.9330439,-0.004918414,-0.004790165,0.35969716,0.0021305287,-0.11398328,0.031957928,1.2401965,-0.41060558,8.7292595
1742312693.9413571,-0.93305403,-0.0049068565,-0.004739414,0.35967168,0.0074568503,-0.09906958,0.051132686,0.9756372,-0.58897364,9.473856
1742312693.9435728,-0.93308204,-0.004862134,-0.004627259,0.35960093,0.0010652643,-0.08096009,0.03941478,0.9756372,-0.58897364,9.473856
1742312693.9456937,-0.93309295,-0.004837428,-0.004586336,0.35957357,-0.02237055,-0.090547465,0.055393744,0.9756372,-0.58897364,9.473856
1742312693.9481785,-0.9331281,-0.004769302,-0.00453363,0.35948375,-0.043675836,-0.0010652643,0.064981125,0.62368953,-0.4333505,9.781511
1742312693.949633,-0.93315166,-0.004738674,-0.0044926424,0.35942364,-0.013848436,-0.060720067,0.06604639,0.62368953,-0.4333505,9.781511
1742312693.9520044,-0.93318063,-0.0046859197,-0.0044519003,0.35934967,-0.027696872,-0.04261057,0.07882956,0.9900024,-0.38307226,8.944737
1742312693.954018,-0.9332093,-0.004638976,-0.0044155763,0.3592762,-0.04154531,-0.045806367,0.077764295,0.9900024,-0.38307226,8.944737
1742312693.9556718,-0.9332368,-0.0045905462,-0.00433822,0.35920656,-0.020240022,-0.091612734,0.062850595,1.4065934,-0.45968673,9.266758
1742312693.9574175,-0.93326455,-0.004562293,-0.004269295,0.35913536,-0.006391586,-0.062850595,0.075633764,1.4065934,-0.45968673,9.266758
1742312693.9596198,-0.9332895,-0.004544006,-0.004239907,0.35907128,-0.023435814,-0.0074568503,0.07243797,1.4065934,-0.45968673,9.266758
1742312693.9612231,-0.9333141,-0.0044988086,-0.004209512,0.35900825,-0.028762136,-0.051132686,0.063915856,1.3144168,-0.33399114,9.192537
1742312693.963595,-0.9333376,-0.0044718413,-0.0041587492,0.35894808,-0.0074568503,-0.047936894,0.06817692,1.3144168,-0.33399114,9.192537
1742312693.9655118,-0.9333642,-0.0044671865,-0.00414668,0.35887906,-0.003195793,0.019174758,0.079894826,0.92416185,-0.5422867,9.446322
1742312693.967923,-0.93337977,-0.0044677807,-0.004162284,0.3588384,-0.015978964,0.036218986,0.08415588,0.92416185,-0.5422867,9.446322
1742312693.9696648,-0.93342566,-0.004474535,-0.0041036713,0.35871944,0.03941478,-0.08202535,0.063915856,0.92416185,-0.5422867,9.446322
1742312693.971366,-0.93345606,-0.0044448166,-0.004023505,0.3586417,-0.03728425,-0.07243797,0.09800432,1.5801731,-0.7302315,8.334216
1742312693.9738111,-0.9334817,-0.0043577086,-0.003897971,0.3585774,-0.045806367,-0.1523328,0.05645901,1.5801731,-0.7302315,8.334216
1742312693.9753594,-0.9335053,-0.0043371646,-0.0037071873,0.35851845,0.0745685,-0.15339807,0.062850595,2.4875755,-0.04309563,7.303512
1742312693.9772274,-0.93353575,-0.004337751,-0.0035221493,0.35844105,0.03728425,-0.17150755,0.07669903,2.4875755,-0.04309563,7.303512
1742312693.9796245,-0.93356276,-0.004251523,-0.0033086415,0.3583738,-0.020240022,-0.22796656,0.063915856,2.4875755,-0.04309563,7.303512
1742312693.981229,-0.93359894,-0.0041521513,-0.003084214,0.35828272,-0.018109493,-0.1938781,0.1043959,2.6862943,0.06344634,9.192537
1742312693.9836648,-0.93361795,-0.0041085114,-0.0029963788,0.35823423,-0.027696872,-0.16724649,0.10013484,2.6862943,0.06344634,9.192537
1742312693.9852493,-0.9336821,-0.0036579918,-0.00273885,0.35807407,-0.31744877,-0.3014698,0.10972223,0.5351041,2.48159,12.427104
1742312693.9879012,-0.93371516,-0.0030341013,-0.0025346645,0.35799497,-0.6157228,-0.46019417,0.07030744,0.5351041,2.48159,12.427104
1742312693.989725,-0.93373436,-0.002334306,-0.0023819366,0.35795137,-0.6391586,-0.30360034,0.05752427,0.5351041,2.48159,12.427104
1742312693.9914138,-0.933792,-0.0018543428,-0.002566253,0.3578026,-0.47297737,0.043675836,0.1938781,-2.6767175,4.745308,19.351135
1742312693.9935782,-0.933873,-0.0015693792,-0.0024976311,0.35759258,-0.37710357,-0.23116235,0.23009709,-2.6767175,4.745308,19.351135
1742312693.9961705,-0.9339827,-0.0012537277,-0.002496384,0.35730758,-0.32384035,-0.13209277,0.3227751,-2.36188,-7.2939353,26.538528
1742312693.9979937,-0.9341065,-0.0010576685,-0.002545933,0.35698396,-0.20133495,-0.030892665,0.35366777,-2.36188,-7.2939353,26.538528
1742312693.9993494,-0.9342418,-0.001102401,-0.002672928,0.35662845,0.062850595,0.15126753,0.3824299,-2.36188,-7.2939353,26.538528
1742312694.001215,-0.93439007,-0.001344171,-0.0027832515,0.35623813,0.27696872,0.079894826,0.44634575,1.4496891,-4.382586,23.36262
1742312694.003645,-0.93446946,-0.0015061734,-0.0027340867,0.35602996,0.34727618,-0.0021305287,0.43995416,1.4496891,-4.382586,23.36262
1742312694.0054653,-0.93465245,-0.0021111136,-0.0027811858,0.35554573,0.42610574,0.08522114,0.3046656,0.641646,-0.85473,17.653646
1742312694.0078235,-0.9347606,-0.0023023565,-0.0024856373,0.3552623,0.25566342,-0.31318772,0.31318772,0.641646,-0.85473,17.653646
1742312694.0097744,-0.9348882,-0.0025557973,-0.0024376393,0.35492504,0.28229505,0.13528857,0.36005935,0.641646,-0.85473,17.653646
1742312694.011225,-0.9349944,-0.002724915,-0.002371241,0.35464433,0.16724649,-0.091612734,0.28868663,0.1400608,2.8299465,6.042965
1742312694.0140102,-0.9350453,-0.0028018178,-0.0022944128,0.35450992,0.19281285,-0.106526434,0.28229505,0.1400608,2.8299465,6.042965
1742312694.015343,-0.9352132,-0.0029926337,-0.0019702555,0.35406733,0.15872438,-0.241815,0.3014698,-2.8215668,-1.0319009,7.0904284
1742312694.017581,-0.93526495,-0.0029780916,-0.0018743165,0.3539312,0.03515372,-0.21944445,0.2865561,-2.8215668,-1.0319009,7.0904284
1742312694.0198498,-0.9353766,-0.002998736,-0.0018120465,0.35363612,0.012783172,-0.020240022,0.32916668,-2.8215668,-1.0319009,7.0904284
1742312694.021297,-0.9355439,-0.0029763365,-0.0017574698,0.35319376,-0.009587379,-0.14594121,0.29507822,-1.9261353,-1.7274165,6.871359
1742312694.0238068,-0.9356553,-0.0028867945,-0.0017522253,0.35289901,-0.062850595,-0.075633764,0.31531823,-1.9261353,-1.7274165,6.871359
1742312694.0262473,-0.93575865,-0.0028508324,-0.0017492863,0.35262546,-0.07030744,-0.07030744,0.27803397,0.4345476,-0.6572084,9.888053
1742312694.0276902,-0.9358505,-0.0027892503,-0.0016753724,0.3523824,-0.025566343,-0.17470334,0.24394552,0.4345476,-0.6572084,9.888053
1742312694.0356367,-0.9358949,-0.002767355,-0.00162221,0.35226494,0.0010652643,-0.14807174,0.24714132,0.4345476,-0.6572084,9.888053
1742312694.0360947,-0.9360161,-0.0027052725,-0.00150619,0.35194382,-0.003195793,-0.11185275,0.20133495,0.21667525,1.839944,9.485827
1742312694.0362155,-0.936051,-0.0026935183,-0.0014658335,0.35185134,-0.008522115,-0.11078749,0.1938781,0.21667525,1.839944,9.485827
1742312694.0363066,-0.93615013,-0.0027602278,-0.0012282906,0.35158792,0.079894826,-0.1523328,0.17683388,-1.292869,-0.29328972,4.787206
1742312694.0376997,-0.93620837,-0.0028323624,-0.0010620395,0.35143262,0.1310275,-0.17683388,0.15872438,-1.292869,-0.29328972,4.787206
1742312694.0396283,-0.9362382,-0.0028622984,-0.0009834303,0.35135302,0.09693905,-0.1640507,0.16511597,-1.292869,-0.29328972,4.787206
1742312694.041262,-0.936328,-0.0029714862,-0.0007802098,0.35111332,0.11185275,-0.14487594,0.1821602,-0.11372458,-1.8363527,7.639898
1742312694.0435996,-0.9363925,-0.0030260968,-0.0006246694,0.3509411,0.1043959,-0.15339807,0.1821602,-0.11372458,-1.8363527,7.639898
1742312694.0454957,-0.93645483,-0.0030512644,-0.0004884428,0.35077465,0.055393744,-0.14168015,0.17150755,-0.16519992,-1.365892,6.1207767
1742312694.0477872,-0.936523,-0.0030867876,-0.00034176742,0.35059255,0.10972223,-0.17044228,0.1938781,-0.16519992,-1.365892,6.1207767
1742312694.0497046,-0.9365887,-0.0031334916,-0.0001813638,0.35041672,0.10972223,-0.16618124,0.1821602,-0.094570965,-0.5662287,6.7013707
1742312694.0518258,-0.9366167,-0.0031678823,-0.00010388742,0.3503415,0.1310275,-0.149137,0.15552859,-0.094570965,-0.5662287,6.7013707
1742312694.0536435,-0.9366929,-0.0032652337,0.00010753853,0.35013685,0.12570119,-0.13848436,0.13635384,-0.094570965,-0.5662287,6.7013707
1742312694.0552523,-0.9367386,-0.0033219447,0.00025600079,0.3500139,0.09906958,-0.14274542,0.12783171,0.60693014,-0.04309563,7.699753
1742312694.0578537,-0.9367822,-0.00339783,0.0004129194,0.34989628,0.13528857,-0.149137,0.11611381,0.60693014,-0.04309563,7.699753
1742312694.0595665,-0.93682367,-0.0034581455,0.00055200636,0.3497844,0.11078749,-0.119309604,0.11717907,0.2705448,-0.32202014,7.0485296
1742312694.0619938,-0.9368438,-0.0035080048,0.00061616703,0.3497301,0.13741909,-0.10120011,0.11078749,0.2705448,-0.32202014,7.0485296
1742312694.0637171,-0.9368987,-0.0036705276,0.00083963893,0.34958076,0.16724649,-0.11185275,0.107591696,0.2705448,-0.32202014,7.0485296
1742312694.0656724,-0.93693817,-0.003807001,0.000984044,0.34947318,0.17044228,-0.09480853,0.106526434,-0.16280572,-0.92057055,7.586028
1742312694.0677524,-0.9369771,-0.0039286255,0.001110446,0.3493673,0.14807174,-0.09800432,0.10972223,-0.16280572,-0.92057055,7.586028
1742312694.069598,-0.93699515,-0.003979843,0.0011633139,0.34931797,0.13635384,-0.08202535,0.10013484,-0.16280572,-0.92057055,7.586028
1742312694.0716748,-0.9370465,-0.0041643926,0.0013497332,0.34917757,0.1523328,-0.07243797,0.09693905,0.23104046,-0.79487497,8.080431
1742312694.0736544,-0.93707836,-0.004271044,0.001397085,0.34909022,0.120374866,-0.013848436,0.08735167,0.23104046,-0.79487497,8.080431
1742312694.0761712,-0.9371097,-0.0043846583,0.0014359651,0.34900442,0.12676646,-0.015978964,0.08841694,0.46806642,-0.2896984,9.457097
1742312694.0777733,-0.93713725,-0.004518525,0.0014848931,0.34892887,0.14168015,-0.0021305287,0.07669903,0.46806642,-0.2896984,9.457097
1742312694.0794094,-0.93716156,-0.004692548,0.001535569,0.3488609,0.19281285,-0.006391586,0.07137271,-0.059855044,-0.35673606,7.837419
1742312694.0811994,-0.93718535,-0.0048819217,0.0016030577,0.34879416,0.20453075,-0.009587379,0.055393744,-0.059855044,-0.35673606,7.837419
1742312694.0834959,-0.9371967,-0.0049954485,0.001629443,0.34876192,0.22903183,0.013848436,0.062850595,-0.059855044,-0.35673606,7.837419
1742312694.085177,-0.93722993,-0.005334139,0.001686039,0.34866732,0.22264025,0.02237055,0.06178533,-0.33279404,-0.581791,8.899248
1742312694.0874553,-0.93724686,-0.005523209,0.001706893,0.3486188,0.1821602,0.030892665,0.040480044,-0.33279404,-0.581791,8.899248
1742312694.0893,-0.9372559,-0.0057238964,0.001727063,0.34859118,0.19707389,0.018109493,0.019174758,0.0011971008,0.40940848,8.823831
1742312694.0918858,-0.9372633,-0.0059447265,0.0017470851,0.34856734,0.2119876,0.038349517,0.012783172,0.0011971008,0.40940848,8.823831
1742312694.0941656,-0.9372739,-0.006160863,0.001768437,0.3485351,0.18535599,0.0447411,0.033023193,0.0011971008,0.40940848,8.823831
1742312694.09779,-0.93728304,-0.0063579883,0.0017733038,0.3485071,0.17363809,0.03515372,0.025566343,0.008379706,-0.22146365,9.16261
1742312694.0990736,-0.93729496,-0.0066247075,0.0017597006,0.34846994,0.13635384,0.053263217,0.023435814,0.008379706,-0.22146365,9.16261
1742312694.099609,-0.9372975,-0.0067038485,0.0017569978,0.3484617,0.13635384,0.040480044,0.012783172,-0.089782566,0.037110128,8.872911
1742312694.101223,-0.9373066,-0.006859306,0.0017452042,0.34843415,0.13315804,0.045806367,0.025566343,-0.089782566,0.037110128,8.872911
1742312694.1035926,-0.93731606,-0.0070153154,0.0017207843,0.3484057,0.11824434,0.063915856,0.02237055,-0.17477672,0.29568392,9.063251
1742312694.1052084,-0.9373239,-0.0071469927,0.0016930382,0.34838203,0.09374326,0.051132686,0.011717907,-0.17477672,0.29568392,9.063251
1742312694.1073134,-0.9373303,-0.0072591123,0.0016803277,0.3483625,0.08096009,0.019174758,0.013848436,-0.17477672,0.29568392,9.063251
1742312694.109659,-0.93733495,-0.0073495787,0.0016873085,0.3483481,0.07350324,-0.018109493,0.008522115,-0.2669535,0.58897364,8.868123
1742312694.1111565,-0.9373356,-0.007459302,0.0017093224,0.34834397,0.077764295,0.0021305287,0.0010652643,-0.2669535,0.58897364,8.868123
1742312694.113508,-0.9373354,-0.007514427,0.0017114141,0.34834343,0.08522114,0.011717907,-0.003195793,-0.2669535,0.58897364,8.868123
1742312694.115337,-0.93733406,-0.007645752,0.0017469712,0.3483441,0.07350324,-0.01704423,-0.011717907,-0.34596214,0.5434838,8.525752
1742312694.1179888,-0.9373329,-0.0077403365,0.00177546,0.34834456,0.08096009,-0.0074568503,0.0021305287,-0.34596214,0.5434838,8.525752
1742312694.119568,-0.9373317,-0.0077766497,0.0017843395,0.34834725,0.05219795,-0.015978964,-0.009587379,-0.2861071,0.34476504,8.263587
1742312694.1213744,-0.9373287,-0.007879286,0.0018503129,0.34835258,0.06924218,-0.059654802,-0.006391586,-0.2861071,0.34476504,8.263587
1742312694.1238933,-0.9373239,-0.007936874,0.0018818212,0.34836397,0.03728425,-0.020240022,-0.0149137005,-0.320823,0.29328972,8.554482
1742312694.1256292,-0.9373202,-0.008005536,0.0019313686,0.34837216,0.060720067,-0.05219795,-0.018109493,-0.320823,0.29328972,8.554482
1742312694.1280658,-0.93731624,-0.008067822,0.001998767,0.34838086,0.06924218,-0.075633764,-0.0149137005,-0.320823,0.29328972,8.554482
1742312694.1298828,-0.93731195,-0.008145982,0.0020619067,0.3483904,0.077764295,-0.0447411,-0.009587379,-0.40462008,0.23104046,8.595184
1742312694.1316135,-0.93730664,-0.008225543,0.0021307573,0.3484024,0.08415588,-0.07669903,-0.021305285,-0.40462008,0.23104046,8.595184
1742312694.1336796,-0.9372946,-0.008307915,0.0022262926,0.34843227,0.10865696,-0.090547465,-0.03728425,-0.45489833,0.5638345,8.110358
1742312694.135332,-0.93727916,-0.008468881,0.0023600527,0.34846905,0.1906823,-0.10013484,-0.043675836,-0.45489833,0.5638345,8.110358
1742312694.1375885,-0.93726397,-0.008596824,0.002484392,0.3485058,0.10226537,-0.105461165,-0.05006742,-0.45489833,0.5638345,8.110358
1742312694.139743,-0.93724626,-0.008658277,0.002551427,0.3485515,0.03941478,-0.062850595,-0.05432848,-0.19991584,0.36391866,7.5309615
1742312694.1413193,-0.937228,-0.008682682,0.0025927857,0.3485997,0.026631609,-0.060720067,-0.05006742,-0.19991584,0.36391866,7.5309615
1742312694.1438234,-0.9372176,-0.0086958995,0.0026344936,0.34862694,0.030892665,-0.09587379,-0.06178533,-0.19991584,0.36391866,7.5309615
1742312694.1454298,-0.9371858,-0.008730595,0.0027233367,0.3487109,0.0,-0.07030744,-0.06817692,0.094570965,0.7685388,8.608353
1742312694.148202,-0.93716383,-0.008690003,0.0027273498,0.34877095,-0.06924218,-0.036218986,-0.063915856,0.094570965,0.7685388,8.608353
1742312694.149492,-0.9371419,-0.008639554,0.0027383517,0.34883115,-0.055393744,-0.055393744,-0.07137271,0.19153613,0.7517793,7.563283
1742312694.151191,-0.93711925,-0.008617429,0.002770951,0.34889236,-0.027696872,-0.06178533,-0.07137271,0.19153613,0.7517793,7.563283
1742312694.1539063,-0.9371052,-0.008607139,0.0028038896,0.34892988,-0.025566343,-0.08841694,-0.08309062,0.19153613,0.7517793,7.563283
1742312694.15522,-0.9370597,-0.008575447,0.0029165186,0.34905192,-0.03941478,-0.090547465,-0.09693905,0.29209262,0.035913024,7.740454
1742312694.157495,-0.93702805,-0.008573061,0.0029472217,0.3491368,-0.018109493,-0.03728425,-0.08522114,0.29209262,0.035913024,7.740454
1742312694.1596086,-0.9370138,-0.008576075,0.002972276,0.34917465,0.0010652643,-0.059654802,-0.08415588,0.79008657,-0.093373865,8.39886
1742312694.1612625,-0.9369743,-0.008579845,0.0030675093,0.3492796,0.036218986,-0.06604639,-0.075633764,0.79008657,-0.093373865,8.39886
1742312694.1634474,-0.9369495,-0.008593544,0.0031307323,0.34934556,0.01704423,-0.05752427,-0.07137271,0.6727707,-0.4405331,8.333019
1742312694.1652305,-0.9369386,-0.008580474,0.0031690474,0.34937453,-0.012783172,-0.0894822,-0.064981125,0.6727707,-0.4405331,8.333019
1742312694.1676235,-0.9369069,-0.008544043,0.00327405,0.3494593,-0.045806367,-0.06178533,-0.06178533,0.6727707,-0.4405331,8.333019
1742312694.1695225,-0.9368936,-0.0085299695,0.0032981718,0.34949532,-0.02237055,-0.06178533,-0.079894826,0.724246,0.34476504,8.694544
1742312694.1718197,-0.9368467,-0.008501744,0.0034047482,0.34962034,0.026631609,-0.0894822,-0.09374326,0.724246,0.34476504,8.694544
1742312694.1739833,-0.9368297,-0.008512812,0.003446896,0.3496655,0.03408846,-0.07669903,-0.10013484,0.724246,0.34476504,8.694544
1742312694.1753347,-0.9367876,-0.008509798,0.0035130405,0.34977737,-0.003195793,-0.058589537,-0.090547465,1.0821792,0.20470424,8.701726
1742312694.1778193,-0.9367575,-0.008479241,0.0035609363,0.3498583,-0.026631609,-0.05432848,-0.08841694,1.0821792,0.20470424,8.701726
1742312694.1795995,-0.9367418,-0.008466148,0.0035931126,0.34990022,-0.019174758,-0.07030744,-0.092677996,1.0163386,0.22984336,9.753978
1742312694.1817434,-0.9367023,-0.008380415,0.0036166077,0.35000786,-0.079894826,-0.026631609,-0.07243797,1.0163386,0.22984336,9.753978
1742312694.1836338,-0.9366729,-0.008329876,0.0036295091,0.35008767,-0.058589537,-0.025566343,-0.09480853,0.5279215,0.45250413,9.153033
1742312694.1853702,-0.9366404,-0.008314719,0.0036119854,0.3501752,-0.045806367,0.010652643,-0.091612734,0.5279215,0.45250413,9.153033
1742312694.1878808,-0.9366235,-0.008305546,0.003597874,0.3502207,-0.04687163,0.01704423,-0.10013484,0.5279215,0.45250413,9.153033
1742312694.189503,-0.93656665,-0.008290448,0.0035943051,0.35037306,-0.0021305287,-0.0053263213,-0.11717907,0.8595184,0.2837129,9.522937
1742312694.1912467,-0.93652904,-0.008328237,0.0035797185,0.35047284,0.013848436,0.04261057,-0.1043959,0.8595184,0.2837129,9.522937
1742312694.1939738,-0.9365115,-0.008326833,0.0035593705,0.35051978,-0.036218986,0.03515372,-0.10333064,1.22224,-0.04309563,9.574412
1742312694.1953523,-0.93645495,-0.008312096,0.003515514,0.35067168,-0.040480044,0.013848436,-0.107591696,1.22224,-0.04309563,9.574412
1742312694.1983926,-0.93642074,-0.0083280895,0.0034709363,0.3507633,-0.010652643,0.06711165,-0.091612734,1.2868834,0.008379706,9.082404
1742312694.199474,-0.9363843,-0.008316971,0.0033971933,0.35086137,-0.058589537,0.05752427,-0.11078749,1.2868834,0.008379706,9.082404
1742312694.2020023,-0.9363646,-0.008317725,0.003374245,0.35091424,-0.030892665,0.04687163,-0.11611381,1.2868834,0.008379706,9.082404
1742312694.2037373,-0.9363066,-0.008398365,0.003304557,0.3510679,0.047936894,0.05645901,-0.119309604,0.9672575,0.24420857,9.0716305
1742312694.2052898,-0.93626714,-0.0084748315,0.0032354156,0.35117182,0.009587379,0.107591696,-0.11504854,0.9672575,0.24420857,9.0716305
1742312694.2079127,-0.93622595,-0.008516673,0.0031212121,0.3512818,-0.03515372,0.11717907,-0.1225054,0.9947908,0.48482585,8.775947
1742312694.2095523,-0.9362041,-0.0084917955,0.0030702583,0.35134107,-0.10120011,0.08096009,-0.12889698,0.9947908,0.48482585,8.775947
1742312694.2111602,-0.9361456,-0.008405002,0.0029435933,0.35150003,-0.063915856,0.14061488,-0.10226537,0.9947908,0.48482585,8.775947
1742312694.2134738,-0.936127,-0.008469305,0.0029571778,0.351548,0.11078749,0.025566343,-0.107591696,2.147599,-0.22984336,8.191761
1742312694.2151566,-0.9360604,-0.00834643,0.0031255495,0.3517266,-0.13528857,-0.10865696,-0.13315804,2.147599,-0.22984336,8.191761
1742312694.2173796,-0.9360349,-0.008345136,0.0031730363,0.3517941,0.0149137005,-0.075633764,-0.14807174,2.147599,-0.22984336,8.191761
1742312694.2196503,-0.9359856,-0.008288067,0.0031598823,0.35192668,-0.11824434,0.0053263213,-0.149137,3.3327289,-0.11372458,7.0928226
1742312694.2213187,-0.9358906,-0.008198989,0.0032217877,0.35218063,-0.16298544,0.04154531,-0.19600864,3.3327289,-0.11372458,7.0928226
1742312694.2238402,-0.93582004,-0.008084506,0.0031412824,0.3523714,-0.20453075,0.11078749,-0.21731392,3.3147724,1.0833763,13.800179
1742312694.2255204,-0.93572927,-0.00789272,0.0027722644,0.35262015,-0.3430151,0.29294768,-0.27483818,3.3147724,1.0833763,13.800179
1742312694.2277763,-0.9356291,-0.0076785055,0.0023685594,0.3528932,-0.42930153,0.31318772,-0.3249056,-0.90620536,4.0378213,24.67584
1742312694.229473,-0.9354955,-0.0074445065,0.0019993347,0.3532547,-0.32916668,0.30360034,-0.38669094,-0.90620536,4.0378213,24.67584
1742312694.2311735,-0.9354344,-0.0073794518,0.0017224061,0.35341904,-0.35579827,0.4719121,-0.35047197,-0.90620536,4.0378213,24.67584
1742312694.233636,-0.935315,-0.007384679,0.0012083526,0.3537372,-0.14700648,0.45593312,-0.34834144,-4.3502645,1.2940661,26.743233
1742312694.2352266,-0.9351097,-0.0074441764,0.00055729575,0.3542799,-0.08309062,0.27270767,-0.43249732,-4.3502645,1.2940661,26.743233
1742312694.237784,-0.9350295,-0.007537052,0.00043885058,0.3544897,0.05645901,0.25885922,-0.45273733,-4.3502645,1.2940661,26.743233
1742312694.2396097,-0.93486047,-0.007737368,3.5395762e-05,0.35493118,0.05219795,0.47617316,-0.47297737,-0.89782566,-2.6731262,22.529438
1742312694.241331,-0.9346467,-0.0082293665,3.2966986e-05,0.3554826,0.3824299,-0.120374866,-0.41332257,-0.89782566,-2.6731262,22.529438
1742312694.2438939,-0.93456703,-0.008427783,0.00019202342,0.3556874,0.47297737,-0.18322547,-0.44634575,-0.061052144,-4.581305,10.359711
1742312694.2453587,-0.9343642,-0.009327279,0.00048075704,0.3561971,0.47830367,0.07350324,-0.3824299,-0.061052144,-4.581305,10.359711
1742312694.2480862,-0.9342212,-0.009525002,0.00065967924,0.35656652,0.12570119,-0.12357066,-0.390952,-1.0522517,-0.17118542,8.77834
1742312694.2495506,-0.9340871,-0.009550977,0.00078880176,0.35691684,0.120374866,-0.18002968,-0.38349515,-1.0522517,-0.17118542,8.77834
1742312694.2511876,-0.9339352,-0.009636142,0.0010126722,0.35731113,0.07350324,-0.20559601,-0.4506068,-1.0522517,-0.17118542,8.77834
1742312694.2534947,-0.93385524,-0.00969463,0.0011193171,0.35751826,0.17789914,-0.18961705,-0.44847628,-1.6436194,5.3019595,10.368091
1742312694.2551527,-0.933635,-0.009745832,0.0013985058,0.35809055,-0.03728425,-0.20026968,-0.41545308,-1.6436194,5.3019595,10.368091
1742312694.2574408,-0.93347186,-0.009709919,0.0016409945,0.35851553,-0.027696872,-0.24820659,-0.46019417,-1.1228806,2.825158,4.847061
1742312694.2592235,-0.9333268,-0.009763178,0.0017619471,0.358891,0.12463593,-0.13635384,-0.3856257,-1.1228806,2.825158,4.847061
1742312694.2620633,-0.93318784,-0.010010034,0.0018095197,0.35924503,0.14807174,0.047936894,-0.39201728,-1.1228806,2.825158,4.847061
1742312694.26413,-0.93305975,-0.010217256,0.0019151727,0.35957146,0.22157498,-0.08309062,-0.33875406,0.6452374,-1.055843,8.355764
1742312694.2661586,-0.93294203,-0.010184081,0.0020275377,0.35987717,-0.043675836,-0.120374866,-0.33662352,0.6452374,-1.055843,8.355764
1742312694.2679012,-0.9328261,-0.010156096,0.0021274278,0.36017773,-0.011717907,-0.077764295,-0.31531823,0.22385786,1.009156,10.115502
1742312694.2699072,-0.9327252,-0.010167177,0.0021739784,0.36043805,0.03728425,-0.08735167,-0.27696872,0.22385786,1.009156,10.115502
1742312694.271333,-0.9326763,-0.01014068,0.0022214241,0.36056507,-0.047936894,-0.1310275,-0.27483818,0.22385786,1.009156,10.115502
1742312694.2735944,-0.93257976,-0.00999678,0.0022173463,0.3608189,-0.1821602,-0.07669903,-0.2663161,0.16879122,1.3802572,7.4028716
1742312694.2751987,-0.9324434,-0.009877163,0.0021211612,0.361175,-0.119309604,0.019174758,-0.25885922,0.16879122,1.3802572,7.4028716
1742312694.2775927,-0.9323949,-0.009868371,0.00213232,0.36130035,-0.047936894,-0.04687163,-0.2716424,0.16879122,1.3802572,7.4028716
1742312694.2795687,-0.9322952,-0.009747665,0.0021335003,0.36156076,-0.15020227,-0.063915856,-0.27909926,-0.320823,2.2457612,6.7708025
1742312694.2818208,-0.9321551,-0.009608111,0.002147509,0.3619253,-0.13848436,-0.053263217,-0.2567287,-0.320823,2.2457612,6.7708025
1742312694.2838159,-0.93206877,-0.009524216,0.002130653,0.36215007,-0.1608549,-0.038349517,-0.24607606,0.48003745,0.7613561,9.2069025
1742312694.2853851,-0.9319752,-0.0094369445,0.0021019299,0.3623932,-0.149137,-0.019174758,-0.2567287,0.48003745,0.7613561,9.2069025
1742312694.2878182,-0.9318878,-0.00932743,0.0020662458,0.36262116,-0.17044228,-0.020240022,-0.24820659,0.20470424,1.3563153,7.621941
1742312694.2895062,-0.9318058,-0.009224842,0.0020350195,0.3628346,-0.14381069,-0.021305285,-0.22477077,0.20470424,1.3563153,7.621941
1742312694.2910843,-0.93176335,-0.009170328,0.002013763,0.3629451,-0.1640507,-0.015978964,-0.23861921,0.20470424,1.3563153,7.621941
1742312694.2933693,-0.931641,-0.009005442,0.0019864405,0.36326295,-0.14487594,-0.062850595,-0.23648869,0.16879122,0.60573304,7.711724
1742312694.2952604,-0.9316019,-0.00893209,0.0019940808,0.3633651,-0.17257282,-0.08309062,-0.22050971,0.16879122,0.60573304,7.711724
1742312694.2975695,-0.93149894,-0.008721883,0.0019552975,0.36363432,-0.1906823,-0.029827401,-0.18961705,0.32800564,0.49440265,8.875306
1742312694.2994812,-0.9314295,-0.008560372,0.0019290483,0.363816,-0.18535599,-0.04900216,-0.1906823,0.32800564,0.49440265,8.875306
1742312694.3013031,-0.9313634,-0.008382095,0.0018772092,0.36398992,-0.22477077,-0.02450108,-0.18322547,0.20350714,0.8283938,8.079233
1742312694.3035166,-0.93130267,-0.0082213795,0.0017910189,0.3641494,-0.2119876,0.0042610574,-0.17683388,0.20350714,0.8283938,8.079233
1742312694.3052092,-0.9312416,-0.008078853,0.0017393634,0.36430898,-0.18322547,-0.026631609,-0.16724649,0.20350714,0.8283938,8.079233
1742312694.3076262,-0.9311798,-0.007943597,0.0016894552,0.36447,-0.1938781,-0.0074568503,-0.1789644,-0.076614454,0.30765492,8.161834
1742312694.3094058,-0.93112,-0.0078033507,0.0016220751,0.3646261,-0.17363809,-0.003195793,-0.16831176,-0.076614454,0.30765492,8.161834
1742312694.3113017,-0.93106455,-0.0076500177,0.0015528406,0.36477095,-0.18748651,0.0074568503,-0.1640507,0.1328782,0.79607207,9.087193
1742312694.3138552,-0.9310089,-0.0075176423,0.0014536316,0.36491618,-0.16831176,0.018109493,-0.15659386,0.1328782,0.79607207,9.087193
1742312694.3154316,-0.9309836,-0.0074545247,0.0014052709,0.36498207,-0.18322547,0.027696872,-0.14274542,0.1328782,0.79607207,9.087193
1742312694.3178895,-0.9309084,-0.007246357,0.0012407613,0.36517894,-0.20133495,0.027696872,-0.149137,0.06703765,0.35434186,8.094796
1742312694.3193753,-0.9308617,-0.0071234955,0.0011623236,0.36530063,-0.16192017,0.012783172,-0.11717907,0.06703765,0.35434186,8.094796
1742312694.321759,-0.93081945,-0.00700659,0.0010769835,0.36541083,-0.15552859,0.012783172,-0.11717907,0.107739076,-0.260968,8.881291
1742312694.3236158,-0.93078107,-0.0068863467,0.0009800772,0.36551118,-0.18855178,0.036218986,-0.11291802,0.107739076,-0.260968,8.881291
1742312694.3253133,-0.9307459,-0.0067492872,0.0008817623,0.36560372,-0.18961705,0.008522115,-0.10120011,0.107739076,-0.260968,8.881291
1742312694.3277,-0.930727,-0.0066782804,0.00083788345,0.36565322,-0.18429072,0.012783172,-0.107591696,-0.17717093,0.34715924,8.552089
1742312694.329634,-0.93069476,-0.0065477914,0.000772621,0.36573762,-0.14168015,-0.013848436,-0.09374326,-0.17717093,0.34715924,8.552089
1742312694.3320043,-0.9306545,-0.006370323,0.00065671076,0.36584353,-0.149137,0.019174758,-0.07669903,-0.29568392,-0.2693477,7.823054
1742312694.3337338,-0.9306273,-0.006230917,0.00059189746,0.3659151,-0.1938781,-0.009587379,-0.06924218,-0.29568392,-0.2693477,7.823054
1742312694.3353148,-0.9305998,-0.00607901,0.00053653336,0.3659877,-0.17470334,-0.023435814,-0.07350324,-0.29568392,-0.2693477,7.823054
1742312694.3377328,-0.9305803,-0.0059389356,0.0004359607,0.36603948,-0.17470334,0.028762136,-0.051132686,0.5363012,-0.31004912,9.249998
1742312694.339661,-0.9305661,-0.0058268774,0.0003548447,0.36607757,-0.16937703,0.011717907,-0.04154531,0.5363012,-0.31004912,9.249998
1742312694.3416865,-0.9305483,-0.005703365,0.0002805056,0.36612466,-0.13954963,0.0149137005,-0.045806367,0.033518825,-0.1328782,9.516952
1742312694.3436534,-0.9305312,-0.0056317695,0.00018313703,0.36616945,-0.10226537,0.062850595,-0.05006742,0.033518825,-0.1328782,9.516952
1742312694.345402,-0.9305104,-0.0055800867,0.00015162307,0.3662231,-0.05645901,-0.02450108,-0.06604639,0.033518825,-0.1328782,9.516952
1742312694.3479252,-0.93049103,-0.005499999,0.00012594806,0.36627346,-0.08309062,-0.021305285,-0.05752427,0.074220255,-0.19273324,8.078036
1742312694.3494685,-0.9304736,-0.00540625,8.165269e-05,0.36631912,-0.12357066,-0.0042610574,-0.047936894,0.074220255,-0.19273324,8.078036
1742312694.3512037,-0.9304537,-0.0053269234,8.461015e-05,0.36637083,-0.08309062,-0.05645901,-0.055393744,-0.08020575,0.29807812,7.8170686
1742312694.3536186,-0.93043214,-0.0052647,7.696258e-05,0.3664264,-0.08096009,-0.023435814,-0.05752427,-0.08020575,0.29807812,7.8170686
1742312694.3553047,-0.9304156,-0.0051856753,7.233236e-05,0.36646974,-0.11824434,-0.05432848,-0.05219795,-0.08020575,0.29807812,7.8170686
1742312694.357414,-0.9304004,-0.0051036538,0.00012008357,0.36650932,-0.08522114,-0.079894826,-0.03728425,-0.15322891,-0.24420857,7.904457
1742312694.3602364,-0.9303986,-0.0050567323,0.0001097827,0.36651477,-0.055393744,-0.019174758,-0.006391586,-0.15322891,-0.24420857,7.904457
1742312694.3623598,-0.9303955,-0.0050350428,0.00010368476,0.3665229,-0.05752427,-0.02450108,-0.020240022,-0.15322891,-0.24420857,7.904457
1742312694.3640578,-0.93038833,-0.0049892524,0.00011612009,0.36654153,-0.02237055,-0.009587379,-0.0149137005,0.21667525,-0.9528923,8.603564
1742312694.3660452,-0.9303842,-0.0049313987,0.000119144024,0.3665529,-0.060720067,-0.047936894,-0.019174758,0.21667525,-0.9528923,8.603564
1742312694.3682272,-0.9303839,-0.004906041,0.00013246815,0.366554,-0.04154531,-0.060720067,-0.0053263213,0.07062895,-0.439336,8.868123
1742312694.3698337,-0.9303828,-0.0048314505,0.00017205297,0.36655778,-0.053263217,-0.079894826,-0.0053263213,0.07062895,-0.439336,8.868123
1742312694.37125,-0.93038404,-0.0047463407,0.00020079309,0.36655578,-0.051132686,-0.062850595,-0.003195793,-0.5758055,-0.3854665,7.410054
1742312694.3737588,-0.9303811,-0.004708439,0.0002653802,0.3665636,-0.003195793,-0.09800432,-0.011717907,-0.5758055,-0.3854665,7.410054
1742312694.37513,-0.9303807,-0.0046747224,0.00028857397,0.36656517,-0.05006742,-0.090547465,-0.006391586,-0.5758055,-0.3854665,7.410054
1742312694.3776197,-0.93038356,-0.0045525418,0.00035155145,0.36655933,-0.075633764,-0.10333064,0.0053263213,-0.29688102,0.2777274,7.8709383
1742312694.3794446,-0.93038934,-0.0044393972,0.00040464848,0.366546,-0.106526434,-0.12996225,0.008522115,-0.29688102,0.2777274,7.8709383
1742312694.3812923,-0.9303966,-0.004336422,0.000438251,0.3665288,-0.09906958,-0.092677996,0.020240022,0.5638345,0.20350714,8.191761
1742312694.383853,-0.9303973,-0.0042915093,0.00046183477,0.36652756,-0.079894826,-0.09587379,0.0,0.5638345,0.20350714,8.191761
1742312694.38529,-0.93040425,-0.0041120285,0.00053750013,0.36651173,-0.11185275,-0.12463593,0.012783172,0.6560113,-0.15801731,8.5700445
1742312694.387685,-0.9304127,-0.003987896,0.00059659086,0.36649153,-0.09800432,-0.11078749,0.021305285,0.6560113,-0.15801731,8.5700445
1742312694.3897202,-0.9304272,-0.0038509534,0.0006296642,0.36645627,-0.14061488,-0.10226537,0.03941478,0.6560113,-0.15801731,8.5700445
1742312694.3917587,-0.930434,-0.0037783806,0.00065558,0.36643982,-0.12889698,-0.11291802,0.033023193,0.2621651,-0.130484,8.554482
1742312694.3936713,-0.93045837,-0.0035321524,0.00066938176,0.36638033,-0.15126753,-0.07137271,0.0447411,0.2621651,-0.130484,8.554482
1742312694.395316,-0.930474,-0.0033926165,0.0006478551,0.36634198,-0.14700648,-0.038349517,0.030892665,-0.031124622,-0.04070143,8.463503
1742312694.398166,-0.93048584,-0.0032684065,0.00068580685,0.36631298,-0.10865696,-0.107591696,0.029827401,-0.031124622,-0.04070143,8.463503
1742312694.3993492,-0.9305016,-0.003130441,0.0007095586,0.36627373,-0.121440135,-0.0894822,0.040480044,-0.031124622,-0.04070143,8.463503
1742312694.4011698,-0.93052053,-0.0030117673,0.00077205466,0.3662266,-0.107591696,-0.119309604,0.047936894,0.32321724,-0.63206923,8.246828
1742312694.4033995,-0.9305404,-0.0028613198,0.0008409739,0.36617723,-0.13528857,-0.14807174,0.05645901,0.32321724,-0.63206923,8.246828
1742312694.4051266,-0.930566,-0.00272945,0.0008874687,0.36611292,-0.13528857,-0.08415588,0.07350324,0.90620536,-0.34715924,7.867347
1742312694.40748,-0.9305905,-0.0026285981,0.0009476769,0.36605126,-0.063915856,-0.11717907,0.060720067,0.90620536,-0.34715924,7.867347
1742312694.4091704,-0.93061274,-0.0025384992,0.0010485508,0.3659951,-0.04154531,-0.14700648,0.062850595,0.90620536,-0.34715924,7.867347
1742312694.4112713,-0.93062866,-0.0024705522,0.0011048992,0.36595502,-0.091612734,-0.1608549,0.08309062,1.0761937,-0.41299978,8.784326
1742312694.424972,-0.93067175,-0.002268394,0.0012545103,0.3658463,-0.10226537,-0.16618124,0.06604639,1.0761937,-0.41299978,8.784326
1742312694.4255166,-0.930687,-0.0021969117,0.001312045,0.36580768,-0.09693905,-0.16192017,0.079894826,1.0761937,-0.41299978,8.784326
1742312694.4256935,-0.9307167,-0.002042113,0.0014171897,0.36573267,-0.1043959,-0.15552859,0.07669903,0.90381116,0.1592144,8.768764
1742312694.425837,-0.9307438,-0.0019157408,0.0015111291,0.36566398,-0.11717907,-0.105461165,0.06924218,0.90381116,0.1592144,8.768764
1742312694.4260416,-0.9307932,-0.0017991363,0.0016384809,0.3655384,-0.04687163,-0.08628641,0.1043959,0.8834604,-0.5614403,9.736021
1742312694.426186,-0.9308315,-0.0016984874,0.0016942237,0.36544108,-0.079894826,-0.105461165,0.09587379,0.8834604,-0.5614403,9.736021
1742312694.4263487,-0.93086857,-0.0015707412,0.0017550137,0.36534688,-0.12357066,-0.09587379,0.10333064,0.7038953,-0.5398925,9.719262
1742312694.4282248,-0.9309065,-0.0014740416,0.0018162376,0.3652504,-0.079894826,-0.077764295,0.09906958,0.7038953,-0.5398925,9.719262
1742312694.4308462,-0.9309471,-0.0013707465,0.0018180658,0.3651471,-0.092677996,-0.043675836,0.107591696,0.7038953,-0.5398925,9.719262
1742312694.4317658,-0.9309867,-0.0012567869,0.0018120082,0.36504647,-0.12463593,-0.02237055,0.10865696,0.973243,-0.24779987,9.958682
1742312694.4335275,-0.931007,-0.0011967164,0.0018022241,0.36499503,-0.12570119,-0.028762136,0.10865696,0.973243,-0.24779987,9.958682
1742312694.4351995,-0.9310701,-0.0010370655,0.0017822572,0.36483437,-0.12996225,-0.0149137005,0.105461165,1.1480197,-0.2825158,9.809045
1742312694.4375951,-0.9311111,-0.0009372727,0.0017907022,0.36473,-0.105461165,-0.05006742,0.10865696,1.1480197,-0.2825158,9.809045
1742312694.4393315,-0.9311503,-0.000846893,0.0017905423,0.3646301,-0.0745685,-0.038349517,0.092677996,1.1480197,-0.2825158,9.809045
1742312694.4412143,-0.9311895,-0.00074640574,0.0017785508,0.3645304,-0.106526434,-0.015978964,0.1043959,1.1384429,-0.6584055,9.589975
1742312694.4435184,-0.9312296,-0.0006699207,0.0017576468,0.3644281,-0.07030744,-0.0021305287,0.105461165,1.1384429,-0.6584055,9.589975
1742312694.4453058,-0.93127114,-0.0005841963,0.0016916879,0.3643224,-0.11717907,0.028762136,0.11824434,1.0151415,-0.7685388,9.624691
1742312694.4477656,-0.9313207,-0.0005405797,0.0016093403,0.36419615,-0.10013484,0.07243797,0.13848436,1.0151415,-0.7685388,9.624691
1742312694.4492292,-0.9313641,-0.0005050903,0.0016812114,0.36408505,0.015978964,-0.13315804,0.105461165,1.0151415,-0.7685388,9.624691
1742312694.4515345,-0.9314055,-0.00040869234,0.0018231655,0.3639786,-0.06924218,-0.15872438,0.11398328,1.5131354,-1.1839328,7.225701
1742312694.4536996,-0.9314516,-0.0002833781,0.0019067979,0.3638601,-0.092677996,-0.10120011,0.12357066,1.5131354,-1.1839328,7.225701
1742312694.455325,-0.9314922,-0.00010819495,0.0019754164,0.36375606,-0.09906958,-0.14168015,0.10226537,2.7353754,0.3842694,8.282741
1742312694.4579172,-0.93151206,-6.317355e-05,0.0020744512,0.3637047,-0.012783172,-0.20346548,0.105461165,2.7353754,0.3842694,8.282741
1742312694.4597652,-0.93158174,0.00011320991,0.0022653188,0.36352512,-0.040480044,-0.15126753,0.119309604,2.7353754,0.3842694,8.282741
1742312694.461655,-0.93160385,0.00018374935,0.002330467,0.363468,-0.091612734,-0.149137,0.119309604,3.1040826,-0.077811554,9.497798
1742312694.46342,-0.93168044,0.00037978165,0.002564376,0.36326975,-0.077764295,-0.13209277,0.15126753,3.1040826,-0.077811554,9.497798
1742312694.4651458,-0.931737,0.000489156,0.0025815652,0.36312434,-0.092677996,-0.02237055,0.149137,2.6240451,-0.17956513,12.051214
1742312694.4675105,-0.9317678,0.0005201453,0.0025905187,0.36304525,-0.060720067,-0.011717907,0.16724649,2.6240451,-0.17956513,12.051214
1742312694.469215,-0.93189573,0.00063947507,0.0025735095,0.36271676,-0.03515372,0.0010652643,0.23648869,-1.9261353,-1.4185646,22.60725
1742312694.471093,-0.9320083,0.00062399934,0.0024600595,0.36242816,0.013848436,0.11611381,0.32916668,-1.9261353,-1.4185646,22.60725
1742312694.4738824,-0.93214536,0.00061838905,0.0022288396,0.36207685,-0.10226537,0.24714132,0.3813646,-1.9261353,-1.4185646,22.60725
1742312694.4761672,-0.93228525,0.00065321504,0.0019074237,0.36171833,-0.09800432,0.28122976,0.390952,-3.5805287,-3.549404,26.37692
1742312694.4778814,-0.9324299,0.00062645593,0.0015773834,0.36134678,-0.17257282,0.27590346,0.390952,-3.5805287,-3.549404,26.37692
1742312694.4804435,-0.9325732,0.0006463622,0.0012560375,0.36097836,-0.08735167,0.23968448,0.40480044,-1.2210429,-0.5410896,24.764425
1742312694.4817705,-0.93271595,0.0005994865,0.0010791263,0.3606097,-0.011717907,0.08522114,0.37816882,-1.2210429,-0.5410896,24.764425
1742312694.4835243,-0.9328259,0.00077239366,0.00089649786,0.36032566,-0.25033712,0.09800432,0.30360034,-1.2210429,-0.5410896,24.764425
1742312694.4852183,-0.93295693,0.000772417,0.0007090436,0.35998684,-0.028762136,0.1310275,0.37710357,1.3551182,3.9719806,13.01129
1742312694.4875722,-0.9330864,0.0006481018,0.0008773295,0.3596506,0.15765911,-0.17789914,0.34514564,1.3551182,3.9719806,13.01129
1742312694.489645,-0.9331456,0.00066820567,0.0008978687,0.35949695,-0.0447411,-0.07669903,0.3259709,1.3551182,3.9719806,13.01129
1742312694.4915648,-0.9333304,0.00069130544,0.0009649163,0.35901675,0.0447411,-0.047936894,0.35260248,-2.0159178,-1.3359646,11.544841
1742312694.493394,-0.9334635,0.000599946,0.0010085499,0.35867047,0.13741909,-0.07669903,0.36858144,-2.0159178,-1.3359646,11.544841
1742312694.4951952,-0.9336078,0.0004947526,0.0011553476,0.3582944,0.107591696,-0.13954963,0.3994741,-3.2202013,-4.201824,8.292317
1742312694.4976296,-0.9337563,0.00034978273,0.0012556185,0.35790738,0.15339807,-0.05432848,0.41332257,-3.2202013,-4.201824,8.292317
1742312694.4992688,-0.9339155,0.00027695895,0.0011567622,0.35749203,0.053263217,0.05752427,0.4538026,-1.7788919,-3.2225955,7.2664022
1742312694.501115,-0.93407226,0.00019019589,0.00115017,0.35708243,0.077764295,0.0074568503,0.42290995,-1.7788919,-3.2225955,7.2664022
1742312694.5035534,-0.9342159,0.000107271,0.0011193705,0.35670623,0.17044228,-0.05219795,0.39308253,-1.7788919,-3.2225955,7.2664022
1742312694.5053153,-0.9343405,7.0056514e-05,0.0011630846,0.35637996,0.04900216,-0.06604639,0.34088457,0.62129533,0.37110126,9.850943
1742312694.5079668,-0.9344543,4.476101e-05,0.001142772,0.3560814,0.0149137005,0.0042610574,0.29933926,0.62129533,0.37110126,9.850943
1742312694.5097737,-0.9345511,-2.125729e-05,0.001083827,0.3558274,0.07350324,0.0149137005,0.2652508,-0.90021986,3.2585084,9.217676
1742312694.511807,-0.9346437,-0.00020396544,0.0011508173,0.3555837,0.1789644,-0.02450108,0.25033712,-0.90021986,3.2585084,9.217676
1742312694.5140908,-0.9347286,-0.0004088193,0.0012618171,0.35535994,0.23755394,-0.058589537,0.22796656,-0.90021986,3.2585084,9.217676
1742312694.5153673,-0.9348218,-0.00057101325,0.0012834668,0.3551145,0.13848436,-0.006391586,0.2599245,-1.7322049,-1.270124,4.868609
1742312694.5178928,-0.93486637,-0.0006819657,0.0013385355,0.35499698,0.23116235,-0.07137271,0.2450108,-1.7322049,-1.270124,4.868609
1742312694.5196824,-0.93499786,-0.00093510526,0.0014399374,0.35464957,0.17789914,-0.08096009,0.25140238,-0.17717093,-1.9165585,7.599196
1742312694.5217552,-0.93509394,-0.001057233,0.0015047927,0.35439512,0.10120011,-0.03728425,0.2631203,-0.17717093,-1.9165585,7.599196
1742312694.523674,-0.93518424,-0.0011548297,0.0015560044,0.3541564,0.12570119,-0.047936894,0.25140238,-0.17717093,-1.9165585,7.599196
1742312694.525514,-0.9352813,-0.0012332464,0.0015751563,0.35389966,0.11291802,-0.03728425,0.27057713,-0.5351041,-1.1168951,5.273229
1742312694.527465,-0.9353734,-0.0013530464,0.0016665104,0.35365528,0.1640507,-0.09374326,0.24074973,-0.5351041,-1.1168951,5.273229
1742312694.5294836,-0.9354582,-0.0014932222,0.0017635172,0.35343003,0.18429072,-0.08628641,0.23968448,-0.60333884,-0.075417355,6.3949127
1742312694.5312543,-0.9355413,-0.0016238609,0.0018292485,0.35320923,0.14061488,-0.05645901,0.22583604,-0.60333884,-0.075417355,6.3949127
1742312694.5334036,-0.9356177,-0.0017482287,0.001919667,0.35300568,0.15872438,-0.09374326,0.21411812,-0.60333884,-0.075417355,6.3949127
1742312694.5351214,-0.93568844,-0.0018358135,0.0020284904,0.35281676,0.11185275,-0.121440135,0.18429072,-0.016759412,0.4285621,7.1826053
1742312694.5374074,-0.93575114,-0.0019558019,0.0020921915,0.35264948,0.10226537,-0.031957928,0.17044228,-0.016759412,0.4285621,7.1826053
1742312694.5391552,-0.93581176,-0.0021234967,0.0021549666,0.35248733,0.1938781,-0.04261057,0.16618124,-0.39264908,0.2645593,6.740875
1742312694.5411856,-0.9358642,-0.002307133,0.0022204272,0.35234645,0.18429072,-0.018109493,0.14168015,-0.39264908,0.2645593,6.740875
1742312694.5440497,-0.93591595,-0.0024994032,0.0022697772,0.35220763,0.1789644,-0.019174758,0.13954963,-0.39264908,0.2645593,6.740875
1742312694.546179,-0.93597084,-0.0026671842,0.0023292177,0.35205993,0.17257282,-0.045806367,0.14807174,-1.1923125,-0.7386112,7.422025
1742312694.54856,-0.9360226,-0.0028085073,0.0023648152,0.3519211,0.12996225,-0.027696872,0.14061488,-1.1923125,-0.7386112,7.422025
1742312694.550357,-0.9360738,-0.0029323718,0.0023827648,0.3517835,0.090547465,0.021305285,0.13635384,-0.6548142,0.2681506,8.221688
1742312694.5511093,-0.9361186,-0.0030645507,0.0023240861,0.35166356,0.11504854,0.07030744,0.12357066,-0.6548142,0.2681506,8.221688
1742312694.5534887,-0.9361416,-0.003146323,0.002289551,0.3516017,0.11824434,0.08309062,0.12783171,-0.6548142,0.2681506,8.221688
1742312694.5551698,-0.93620366,-0.0033892784,0.0022332263,0.3514348,0.149137,0.026631609,0.11185275,-0.94690675,0.19393034,8.018182
1742312694.557403,-0.93623894,-0.003566445,0.0022147151,0.351339,0.16511597,0.04261057,0.09693905,-0.94690675,0.19393034,8.018182
1742312694.5591254,-0.936272,-0.0037658145,0.0022098976,0.3512489,0.15872438,0.023435814,0.08628641,-1.2653356,0.24899697,7.7488337
1742312694.5622082,-0.9362994,-0.0039659557,0.0022181484,0.35117364,0.17789914,0.008522115,0.08415588,-1.2653356,0.24899697,7.7488337
1742312694.563783,-0.93632674,-0.004165774,0.0022135181,0.35109848,0.15978965,0.03728425,0.06604639,-1.0809821,0.521936,7.9954367
1742312694.5661314,-0.9363504,-0.004378288,0.0021940628,0.35103282,0.16937703,0.047936894,0.059654802,-1.0809821,0.521936,7.9954367
1742312694.5678966,-0.9363692,-0.0045784744,0.0022119132,0.35097998,0.19494337,-0.0021305287,0.05219795,-1.0809821,0.521936,7.9954367
1742312694.5704741,-0.9363878,-0.004799068,0.0022198835,0.35092747,0.18109493,0.05006742,0.04687163,-0.8331822,0.2633622,7.797915
1742312694.5716577,-0.93640935,-0.0050097583,0.0021913843,0.35086733,0.1608549,0.055393744,0.062850595,-0.8331822,0.2633622,7.797915
1742312694.573509,-0.9364278,-0.005168036,0.0021825174,0.35081553,0.10865696,0.0074568503,0.05219795,-1.0079589,0.22744916,8.558074
1742312694.5752325,-0.9364452,-0.005333915,0.0021584479,0.35076678,0.11611381,0.063915856,0.04900216,-1.0079589,0.22744916,8.558074
1742312694.5776937,-0.9364635,-0.0055004847,0.002096655,0.35071576,0.10333064,0.064981125,0.045806367,-1.0079589,0.22744916,8.558074
1742312694.5795705,-0.9364736,-0.0056229094,0.0020436111,0.3506871,0.064981125,0.05432848,0.02237055,-0.6368576,1.1408371,8.153454
1742312694.581753,-0.93648314,-0.005757952,0.0019683326,0.35065997,0.08841694,0.08202535,0.026631609,-0.6368576,1.1408371,8.153454
1742312694.5837367,-0.9364878,-0.0058897506,0.0018892469,0.35064584,0.07882956,0.06711165,0.003195793,-1.0307038,0.878672,8.775947
1742312694.585365,-0.9364889,-0.006038784,0.0018655745,0.35064024,0.08522114,0.036218986,0.0010652643,-1.0307038,0.878672,8.775947
1742312694.5875137,-0.9364944,-0.00617112,0.001777187,0.35062367,0.06924218,0.08309062,0.01704423,-1.0307038,0.878672,8.775947
1742312694.5902398,-0.9364991,-0.006270192,0.0016841994,0.35061,0.015978964,0.07243797,0.0149137005,-1.1875241,0.5602432,7.8876977
1742312694.591511,-0.93649554,-0.006371994,0.0016256507,0.350618,0.03728425,0.05006742,-0.015978964,-1.1875241,0.5602432,7.8876977
1742312694.593543,-0.93649715,-0.0064723245,0.0015277484,0.35061228,0.030892665,0.079894826,-0.006391586,-0.9876082,0.88944596,8.8645315
1742312694.5952044,-0.9364912,-0.0065827463,0.0014678283,0.35062623,0.036218986,0.04261057,-0.02237055,-0.9876082,0.88944596,8.8645315
1742312694.5977707,-0.9364908,-0.006689108,0.001397178,0.35062578,0.058589537,0.06178533,-0.0053263213,-0.9876082,0.88944596,8.8645315
1742312694.5991817,-0.9364858,-0.006778541,0.0012801343,0.35063773,0.010652643,0.106526434,-0.02237055,-0.80086046,1.1025299,8.392874
1742312694.6015704,-0.9364723,-0.0069024195,0.0011666704,0.35067174,0.07243797,0.12357066,-0.03941478,-0.80086046,1.1025299,8.392874
1742312694.6034307,-0.93646467,-0.0070646717,0.0010378357,0.35068947,0.0745685,0.14381069,-0.0149137005,-1.6280571,0.59256494,9.437943
1742312694.605133,-0.9364566,-0.007203868,0.0008790951,0.3507085,0.019174758,0.1523328,-0.028762136,-1.6280571,0.59256494,9.437943
1742312694.6075258,-0.9364518,-0.00727196,0.00080154126,0.35071978,0.04154531,0.14807174,-0.027696872,-1.6280571,0.59256494,9.437943
1742312694.609406,-0.93643415,-0.0074749487,0.00048688447,0.3507634,-0.0010652643,0.22583604,-0.038349517,-1.6663644,1.0366893,9.370906
1742312694.6115856,-0.93642974,-0.007544944,0.00037325753,0.35077378,0.019174758,0.21411812,-0.025566343,-1.6663644,1.0366893,9.370906
1742312694.6139185,-0.9364169,-0.007741555,7.0773334e-05,0.3508039,0.038349517,0.17576861,-0.02450108,-1.6136919,1.0785879,9.26556
1742312694.6160293,-0.93641114,-0.007902544,-0.00011751068,0.35081583,0.07350324,0.18109493,-0.019174758,-1.6136919,1.0785879,9.26556
1742312694.617946,-0.9364054,-0.00808013,-0.00027276576,0.35082698,0.077764295,0.15765911,-0.015978964,-1.6136919,1.0785879,9.26556
1742312694.6205065,-0.9363922,-0.008277045,-0.0004083055,0.35085788,0.105461165,0.15978965,-0.03515372,-1.8590976,0.19752164,7.285556
1742312694.6221917,-0.93638647,-0.008362662,-0.0004898597,0.35087094,0.07243797,0.15872438,-0.031957928,-1.8590976,0.19752164,7.285556
1742312694.6235323,-0.9363653,-0.008544902,-0.0007555378,0.35092238,-0.040480044,0.15872438,-0.058589537,-0.9911995,2.2577322,8.12233
1742312694.6252036,-0.9363423,-0.008607689,-0.0009659473,0.35098147,-0.04261057,0.14807174,-0.07243797,-0.9911995,2.2577322,8.12233
1742312694.6276186,-0.936333,-0.008632618,-0.0010743684,0.35100558,-0.07137271,0.16937703,-0.05432848,-0.9911995,2.2577322,8.12233
1742312694.6295927,-0.936309,-0.008674844,-0.0012494086,0.35106826,-0.029827401,0.11717907,-0.07350324,-1.2904748,2.030283,9.281123
1742312694.6315167,-0.9362689,-0.008746196,-0.0015608151,0.35117194,-0.08415588,0.18961705,-0.06711165,-1.2904748,2.030283,9.281123
1742312694.6337755,-0.93624586,-0.008827131,-0.0017708944,0.35123032,-0.07030744,0.18855178,-0.062850595,-1.7477672,0.6691794,7.1754227
1742312694.6362162,-0.9362227,-0.008877292,-0.0019856645,0.3512899,-0.04687163,0.15978965,-0.07030744,-1.7477672,0.6691794,7.1754227
1742312694.637781,-0.9361973,-0.008927601,-0.0022135873,0.35135496,-0.07669903,0.18322547,-0.077764295,-1.7477672,0.6691794,7.1754227
1742312694.6393735,-0.93617266,-0.008987938,-0.0023911614,0.35141787,-0.04154531,0.14594121,-0.075633764,-1.6065093,0.94451255,8.422802
1742312694.641802,-0.9361454,-0.009034211,-0.0025923015,0.35148734,-0.05645901,0.14061488,-0.079894826,-1.6065093,0.94451255,8.422802
1742312694.643611,-0.9361337,-0.0090595605,-0.0026877976,0.35151783,-0.059654802,0.14274542,-0.06817692,-1.6065093,0.94451255,8.422802
1742312694.6452186,-0.93609124,-0.009060652,-0.0030357507,0.3516277,-0.08628641,0.15552859,-0.075633764,-0.79128367,1.3790601,7.690176
1742312694.6474473,-0.9360646,-0.009057837,-0.0032841053,0.35169643,-0.11717907,0.18109493,-0.079894826,-1.0235212,1.543063,9.192537
1742312694.6492274,-0.9360338,-0.009076197,-0.003491103,0.3517759,-0.10333064,0.15872438,-0.09800432,-1.0235212,1.543063,9.192537
1742312694.6515477,-0.93599826,-0.009104225,-0.0037053337,0.3518678,-0.07030744,0.16831176,-0.105461165,-1.0235212,1.543063,9.192537
1742312694.654901,-0.9359661,-0.0091304565,-0.0039317594,0.35195017,-0.120374866,0.1906823,-0.09800432,-1.1133038,0.8882488,8.110358
1742312694.657728,-0.935932,-0.009162888,-0.004118184,0.3520379,-0.07882956,0.13315804,-0.106526434,-1.1133038,0.8882488,8.110358
1742312694.6594915,-0.93588203,-0.009217861,-0.00446933,0.3521645,-0.06711165,0.18642126,-0.09374326,-1.0869676,1.2964603,9.466674
1742312694.6621597,-0.93586284,-0.009246651,-0.0045919837,0.35221323,-0.07350324,0.20772654,-0.107591696,-1.0869676,1.2964603,9.466674
1742312694.6626487,-0.9357996,-0.009358017,-0.004933858,0.35237384,-0.064981125,0.19813916,-0.119309604,-1.3682863,1.271321,8.663419
1742312694.6635256,-0.9357996,-0.009358017,-0.004933858,0.35237384,-0.064981125,0.19813916,-0.119309604,-1.3682863,1.271321,8.663419
1742312694.665181,-0.93573576,-0.009474619,-0.0052834875,0.3525353,-0.04687163,0.19813916,-0.121440135,-1.3682863,1.271321,8.663419
1742312694.667143,-0.9356905,-0.0095663965,-0.0055355555,0.35264894,-0.043675836,0.22903183,-0.12676646,-1.3251907,1.472434,9.321824
1742312694.6692445,-0.93564963,-0.009669364,-0.0057885023,0.35275057,-0.07243797,0.24074973,-0.107591696,-1.3251907,1.472434,9.321824
1742312694.6711714,-0.93561,-0.009734968,-0.0060361256,0.3528498,-0.06924218,0.20240022,-0.106526434,-1.3251907,1.472434,9.321824
1742312694.6734428,-0.9355648,-0.009785719,-0.006266834,0.35296395,-0.07669903,0.18855178,-0.12357066,-0.842759,1.7836803,8.767567
1742312694.6751177,-0.9355197,-0.009885442,-0.0064746053,0.35307693,-0.015978964,0.1938781,-0.119309604,-0.842759,1.7836803,8.767567
1742312694.6775322,-0.9354743,-0.009963145,-0.0067115542,0.3531909,-0.05006742,0.21305287,-0.1342233,-0.8415619,1.4772224,8.808268
1742312694.6794786,-0.9354515,-0.009997577,-0.0068267104,0.35324785,-0.063915856,0.20133495,-0.12570119,-0.8415619,1.4772224,8.808268
1742312694.6815715,-0.9353866,-0.010089287,-0.007143263,0.35341087,-0.040480044,0.16831176,-0.121440135,-0.8415619,1.4772224,8.808268
1742312694.6836035,-0.93534446,-0.010130001,-0.007353194,0.3535169,-0.08628641,0.18855178,-0.11185275,-0.9756372,1.6759412,8.652645
1742312694.685221,-0.9353026,-0.010203478,-0.007555796,0.3536213,-0.062850595,0.18002968,-0.11611381,-0.9756372,1.6759412,8.652645
1742312694.6877282,-0.93525887,-0.010269423,-0.00778104,0.35373005,-0.064981125,0.19600864,-0.11291802,-0.9756372,1.553837,9.058462
1742312694.6894467,-0.9352392,-0.010287874,-0.007893938,0.35377902,-0.09374326,0.18748651,-0.10865696,-0.9756372,1.553837,9.058462
1742312694.6910799,-0.93519074,-0.010329398,-0.008139976,0.35390025,-0.079894826,0.19920443,-0.14061488,-0.9756372,1.553837,9.058462
1742312694.6933393,-0.93514323,-0.010381345,-0.008392565,0.35401845,-0.10972223,0.22903183,-0.12676646,-0.8499416,2.1212628,8.694544
1742312694.695145,-0.9350751,-0.010519193,-0.008737396,0.35418627,-0.051132686,0.20985708,-0.12676646,-0.8499416,2.1212628,8.694544
1742312694.6975563,-0.93502796,-0.010613035,-0.008925796,0.35430276,-0.019174758,0.16831176,-0.12676646,-0.6368576,1.1528081,9.011775
1742312694.6993995,-0.93498504,-0.0107044,-0.009114937,0.35440838,-0.025566343,0.17363809,-0.120374866,-0.6368576,1.1528081,9.011775
1742312694.7014651,-0.9349422,-0.010825492,-0.009259228,0.35451403,0.026631609,0.15446332,-0.10972223,-0.6368576,1.1528081,9.011775
1742312694.703438,-0.9349196,-0.010895996,-0.0093237255,0.35456988,0.04261057,0.13635384,-0.12357066,-1.8543092,0.010773907,10.02572
1742312694.7051673,-0.9348508,-0.011389324,-0.009087555,0.3547419,0.46978155,-0.15126753,-0.11291802,-1.8543092,0.010773907,10.02572
1742312694.7074294,-0.93482614,-0.011912079,-0.008885673,0.35479492,0.55926377,-0.006391586,-0.03728425,-7.571663,-4.7656584,16.25663
1742312694.7092717,-0.9348074,-0.012493472,-0.008704144,0.35482857,0.63489753,-0.07669903,-0.05219795,-7.571663,-4.7656584,16.25663
1742312694.7117567,-0.9347412,-0.013055457,-0.008508304,0.3549875,0.48895633,-0.0021305287,-0.21944445,-7.571663,-4.7656584,16.25663
1742312694.7136157,-0.934638,-0.013499606,-0.008358291,0.355246,0.37497303,-0.02450108,-0.30999193,-9.294291,3.7720647,24.356215
1742312694.715299,-0.9344914,-0.0138089415,-0.008359877,0.35561955,0.27590346,0.07030744,-0.4239752,-9.294291,3.7720647,24.356215
1742312694.7178042,-0.93441975,-0.013946328,-0.008386683,0.35580194,0.21837918,0.06604639,-0.39414778,-9.294291,3.7720647,24.356215
1742312694.7203267,-0.9342219,-0.014228639,-0.008939226,0.3562967,-0.21411812,0.33449298,-0.35153723,-6.293159,7.807492,29.081171
1742312694.7217634,-0.9340931,-0.013731919,-0.009183793,0.35664713,-0.68496495,-0.11291802,-0.3824299,-6.293159,7.807492,29.081171
1742312694.7237089,-0.9339727,-0.0130257495,-0.009364166,0.3569843,-0.8053398,-0.08735167,-0.35579827,-3.645172,4.9045224,19.426552
1742312694.7252643,-0.9338507,-0.012498948,-0.009889386,0.35730803,-0.70520496,0.29720876,-0.3398193,-3.645172,4.9045224,19.426552
1742312694.7278538,-0.93373555,-0.012034776,-0.010247256,0.35761473,-0.48576054,0.006391586,-0.32916668,-2.7090392,-2.942474,11.874043
1742312694.7296107,-0.93362063,-0.011558273,-0.010319499,0.3579281,-0.47723842,-0.20985708,-0.3430151,-2.7090392,-2.942474,11.874043
1742312694.7320101,-0.9334944,-0.011160093,-0.010307987,0.35827008,-0.3845604,-0.1821602,-0.37284252,-2.7090392,-2.942474,11.874043
1742312694.733522,-0.9333535,-0.010729549,-0.0103061,0.3586504,-0.39627832,-0.27590346,-0.43569311,-4.295198,-2.0530279,8.497022
1742312694.7353237,-0.93319327,-0.010275188,-0.010186847,0.35908368,-0.4623247,-0.3398193,-0.46765104,-4.295198,-2.0530279,8.497022
1742312694.7372694,-0.93311685,-0.010048536,-0.010124962,0.35929036,-0.38988674,-0.35047197,-0.4452805,-4.295198,-2.0530279,8.497022
1742312694.739207,-0.9329092,-0.009332274,-0.010035627,0.3598511,-0.41651836,-0.29507822,-0.39308253,-4.5992613,2.7281928,7.117962
1742312694.7417874,-0.9329092,-0.009332274,-0.010035627,0.3598511,-0.41651836,-0.29507822,-0.39308253,-4.5992613,2.7281928,7.117962
1742312694.7435288,-0.93263984,-0.008726746,-0.00971406,0.36057273,-0.17789914,-0.39734358,-0.3856257,-2.220622,-1.6555905,6.6307416
1742312694.7452912,-0.9325094,-0.008286234,-0.009452165,0.36092693,-0.41651836,-0.4900216,-0.37071198,-2.220622,-1.6555905,6.6307416
1742312694.7481227,-0.9323932,-0.0077700545,-0.009205807,0.36124477,-0.41438782,-0.4900216,-0.33555827,-2.1906946,-1.8674773,9.421184
1742312694.7501543,-0.9322816,-0.0072236876,-0.0089924,0.36154956,-0.42504045,-0.49321738,-0.33023193,-2.1906946,-1.8674773,9.421184
1742312694.7517724,-0.93217546,-0.0066624717,-0.00873176,0.36184025,-0.45699838,-0.5017395,-0.31212243,-2.328361,-0.4225766,6.733692
1742312694.753353,-0.9320757,-0.00605308,-0.008481272,0.36211383,-0.45273733,-0.51771843,-0.28868663,-2.328361,-0.4225766,6.733692
1742312694.755291,-0.93197566,-0.0053871716,-0.008221148,0.36238763,-0.52304476,-0.5731122,-0.29720876,-2.328361,-0.4225766,6.733692
1742312694.75774,-0.9318773,-0.0047815866,-0.007894766,0.36265644,-0.43462783,-0.6072007,-0.29507822,-2.822764,0.7290344,5.9747305
1742312694.759664,-0.93178296,-0.004167636,-0.007570458,0.362913,-0.4623247,-0.62211436,-0.27377293,-2.822764,0.7290344,5.9747305
1742312694.7617164,-0.93173736,-0.0038749513,-0.0073974943,0.36303693,-0.43356258,-0.61891854,-0.27057713,-2.822764,0.7290344,5.9747305
1742312694.7638347,-0.9316082,-0.0029469663,-0.006968662,0.3633854,-0.4655205,-0.56352484,-0.24927185,-2.0039468,-0.33159694,7.2460513
1742312694.7653108,-0.93152654,-0.0023098881,-0.0067285714,0.36360395,-0.5283711,-0.5613943,-0.23329288,-2.0039468,-0.33159694,7.2460513
1742312694.7676342,-0.9314858,-0.0020023882,-0.0065834825,0.36371273,-0.4804342,-0.5709817,-0.23861921,-1.6807296,0.21906945,6.2345014
1742312694.7692564,-0.9313607,-0.0010158144,-0.0061398903,0.36404467,-0.51239216,-0.6093312,-0.2567287,-1.6807296,0.21906945,6.2345014
1742312694.77154,-0.9312752,-0.0003567918,-0.005825579,0.36426997,-0.52517533,-0.5933522,-0.241815,-2.110489,0.088585466,8.200141
1742312694.7734451,-0.93119377,0.00029054008,-0.005545054,0.36448234,-0.5145227,-0.57737327,-0.23648869,-2.110489,0.088585466,8.200141
1742312694.7752297,-0.9311098,0.0009290397,-0.0052384883,0.36470023,-0.48256475,-0.5880259,-0.23968448,-2.110489,0.088585466,8.200141
1742312694.7778974,-0.9310345,0.0015565689,-0.0049473136,0.3648942,-0.48789105,-0.56352484,-0.2119876,-2.0482395,-0.35793316,8.738836
1742312694.7794228,-0.93096507,0.002167851,-0.0046810233,0.36507186,-0.49641317,-0.5347627,-0.20985708,-2.0482395,-0.35793316,8.738836
1742312694.7818174,-0.9308918,0.002763898,-0.004403505,0.3652581,-0.46125945,-0.53902376,-0.20240022,-2.0578163,-0.34117374,8.617929
1742312694.783506,-0.9308203,0.0033704143,-0.004142061,0.36543837,-0.49321738,-0.52304476,-0.20346548,-2.0578163,-0.34117374,8.617929
1742312694.785258,-0.930748,0.004014931,-0.00389444,0.36561862,-0.52304476,-0.5336974,-0.19920443,-2.0578163,-0.34117374,8.617929
1742312694.7878656,-0.930714,0.0043388586,-0.0037792479,0.36570284,-0.5347627,-0.5166532,-0.18748651,-2.4624364,0.33039984,9.246407
1742312694.7901642,-0.9306449,0.004970183,-0.003598959,0.36587223,-0.5379585,-0.45273733,-0.18429072,-2.4624364,0.33039984,9.246407
1742312694.7916238,-0.9305433,0.0059014563,-0.0033759496,0.36611888,-0.5486111,-0.42823625,-0.17363809,-2.2577322,0.11252748,9.208099
1742312694.7936573,-0.93048143,0.006525437,-0.003246626,0.36626664,-0.55393744,-0.39521307,-0.1608549,-2.2577322,0.11252748,9.208099
1742312694.7952468,-0.930418,0.0071573746,-0.0031493357,0.36641675,-0.57204694,-0.38029936,-0.16192017,-2.2577322,0.11252748,9.208099
1742312694.7973406,-0.93035316,0.0077937953,-0.003062932,0.3665693,-0.59015644,-0.37710357,-0.17363809,-2.1045034,-0.10534488,9.803059
1742312694.7994947,-0.9302871,0.008420561,-0.0029669479,0.36672398,-0.5795038,-0.37177724,-0.16724649,-2.1045034,-0.10534488,9.803059
1742312694.8013985,-0.93022424,0.00904226,-0.0029207075,0.36686894,-0.5795038,-0.3281014,-0.16192017,-1.8650831,-0.51595044,9.726444
1742312694.8094428,-0.93019617,0.009349857,-0.002899892,0.36693245,-0.576308,-0.3259709,-0.14168015,-1.8650831,-0.51595044,9.726444
1742312694.8101177,-0.93010825,0.010279212,-0.0028637366,0.36713064,-0.5826996,-0.30999193,-0.13848436,-1.8650831,-0.51595044,9.726444
1742312694.8102753,-0.9300526,0.010879119,-0.0028519004,0.36725438,-0.55713326,-0.28229505,-0.13848436,-1.9045875,-0.29927522,9.166202
1742312694.8104556,-0.9299964,0.011411751,-0.0028699185,0.36738056,-0.49534792,-0.23648869,-0.14381069,-1.9045875,-0.29927522,9.166202
1742312694.8110914,-0.9299452,0.011900601,-0.002854355,0.3674945,-0.46445525,-0.25885922,-0.12463593,-2.0123265,-0.79367787,8.670602
1742312694.813203,-0.9298935,0.012378552,-0.00285577,0.36760965,-0.46658576,-0.22157498,-0.13528857,-2.0123265,-0.79367787,8.670602
1742312694.8153389,-0.92983747,0.012849187,-0.0028912914,0.36773476,-0.45593312,-0.18429072,-0.13528857,-2.0123265,-0.79367787,8.670602
1742312694.818035,-0.92978674,0.0132712815,-0.0029191708,0.36784777,-0.40373516,-0.19281285,-0.13209277,-2.005144,-0.49799395,8.779537
1742312694.820072,-0.9297602,0.013486238,-0.0029361348,0.367907,-0.42504045,-0.18748651,-0.13209277,-2.005144,-0.49799395,8.779537
1742312694.822175,-0.92969215,0.014071826,-0.0030419424,0.36805612,-0.40053937,-0.11717907,-0.1043959,-1.7956513,-0.8523358,8.074445
1742312694.8237672,-0.9296455,0.014449225,-0.0030797245,0.36815915,-0.3643204,-0.17789914,-0.11717907,-1.7956513,-0.8523358,8.074445
1742312694.8251889,-0.92960113,0.014826457,-0.0031244657,0.36825582,-0.36858144,-0.14381069,-0.10120011,-1.7956513,-0.8523358,8.074445
1742312694.8277,-0.9295805,0.014998163,-0.003173014,0.36830023,-0.36325514,-0.09800432,-0.09906958,-1.9752164,-0.9888053,8.41921
1742312694.8292394,-0.9295191,0.015520971,-0.003224845,0.36843324,-0.34088457,-0.1640507,-0.08841694,-1.9752164,-0.9888053,8.41921
1742312694.8314798,-0.929485,0.015823964,-0.0033209415,0.36850563,-0.31531823,-0.06924218,-0.07882956,-2.1739352,-1.091756,8.469488
1742312694.8335238,-0.92946726,0.01596291,-0.0033634517,0.36854395,-0.29401296,-0.08735167,-0.08628641,-2.1739352,-1.091756,8.469488
1742312694.83534,-0.9294187,0.016357012,-0.0034819797,0.36864814,-0.25885922,-0.08735167,-0.08096009,-2.4133554,-1.1767502,8.440758
1742312694.8374956,-0.92938554,0.016607728,-0.0035494643,0.36871964,-0.25459817,-0.08841694,-0.0745685,-2.4133554,-1.1767502,8.440758
1742312694.8391783,-0.92935747,0.016825544,-0.0036043704,0.36877996,-0.1821602,-0.107591696,-0.07030744,-2.4133554,-1.1767502,8.440758
1742312694.8417795,-0.929332,0.01701212,-0.0036513621,0.36883515,-0.18961705,-0.09587379,-0.063915856,-2.3008277,-1.7226281,8.121132
1742312694.8436,-0.9293125,0.017161587,-0.0037087633,0.36887673,-0.16298544,-0.075633764,-0.047936894,-2.3008277,-1.7226281,8.121132
1742312694.8455715,-0.92929345,0.017313225,-0.0037623574,0.36891717,-0.15020227,-0.08628641,-0.05006742,-2.2230163,-1.2449849,8.12592
1742312694.8477793,-0.92927724,0.017474456,-0.0037800444,0.3689502,-0.16937703,-0.120374866,-0.040480044,-2.2230163,-1.2449849,8.12592
1742312694.8492284,-0.92926025,0.017619668,-0.003800062,0.36898577,-0.14168015,-0.1043959,-0.0447411,-2.2230163,-1.2449849,8.12592
1742312694.8516383,-0.9292496,0.017757643,-0.00382061,0.36900607,-0.12463593,-0.106526434,-0.021305285,-2.1260512,-0.81642276,7.8912888
1742312694.8533485,-0.9292385,0.017872022,-0.0038226012,0.36902842,-0.120374866,-0.106526434,-0.028762136,-2.1260512,-0.81642276,7.8912888
1742312694.8551745,-0.92923325,0.0179882,-0.0038522969,0.36903566,-0.09480853,-0.0894822,-0.009587379,-1.9393034,-1.0761937,8.595184
1742312694.8577523,-0.92923,0.018043624,-0.0038553777,0.36904123,-0.10333064,-0.105461165,-0.018109493,-1.9393034,-1.0761937,8.595184
1742312694.8594153,-0.9292133,0.01818286,-0.003876007,0.36907628,-0.06178533,-0.09587379,-0.027696872,-1.9393034,-1.0761937,8.595184
1742312694.861608,-0.92920375,0.018267566,-0.0038925465,0.3690958,-0.06817692,-0.07882956,-0.028762136,-2.1392193,-0.7350199,8.595184
1742312694.8637006,-0.9291995,0.01829066,-0.0039023452,0.36910522,-0.051132686,-0.06711165,-0.025566343,-2.1392193,-0.7350199,8.595184
1742312694.8652985,-0.9291831,0.018381389,-0.003930826,0.36914167,-0.055393744,-0.077764295,-0.0149137005,-2.1787236,-0.93134445,8.605958
1742312694.867847,-0.92917985,0.018454775,-0.0039623682,0.3691458,-0.09480853,-0.059654802,-0.0021305287,-2.1787236,-0.93134445,8.605958
1742312694.8693168,-0.9291761,0.018477324,-0.0039742445,0.3691541,-0.009587379,-0.060720067,-0.021305285,-2.1787236,-0.93134445,8.605958
1742312694.8717363,-0.92917025,0.018434882,-0.0039679897,0.36917108,0.06924218,-0.07350324,-0.029827401,-2.1296425,-1.1528081,8.546103
1742312694.8737657,-0.92916936,0.01834791,-0.003946554,0.36917797,0.06604639,-0.05006742,-0.0053263213,-2.1296425,-1.1528081,8.546103
1742312694.8757157,-0.9291667,0.018307671,-0.0039021352,0.36918703,0.05006742,-0.10333064,-0.013848436,-2.1212628,-1.4293385,8.917204
1742312694.8777728,-0.92916757,0.018265523,-0.0038596017,0.3691872,0.040480044,-0.08415588,0.0021305287,-2.1212628,-1.4293385,8.917204
1742312694.8795054,-0.92916894,0.018222943,-0.0038288047,0.3691864,0.1043959,-0.09374326,-0.0053263213,-2.1212628,-1.4293385,8.917204
1742312694.8816402,-0.92917246,0.018092962,-0.0037358594,0.36918497,0.11824434,-0.090547465,0.0010652643,-2.2828712,-0.8762778,8.573636
1742312694.8837183,-0.92917794,0.018025473,-0.0036809833,0.36917505,0.07137271,-0.090547465,-0.0010652643,-2.2828712,-0.8762778,8.573636
1742312694.8852415,-0.92917955,0.01795583,-0.0036203163,0.36917484,0.090547465,-0.10120011,-0.011717907,-2.3942018,-0.51954174,9.255983
1742312694.88761,-0.9291804,0.01789275,-0.0035510052,0.36917645,0.091612734,-0.10013484,-0.0074568503,-2.3942018,-0.51954174,9.255983
1742312694.8893323,-0.9291811,0.017815545,-0.0034688055,0.36917925,0.10333064,-0.12676646,-0.021305285,-2.3942018,-0.51954174,9.255983
1742312694.8914018,-0.92918426,0.017727261,-0.0033883573,0.3691763,0.11824434,-0.11185275,-0.003195793,-1.9165585,-0.5554548,8.700529
1742312694.8933804,-0.9291857,0.0176729,-0.0033490881,0.36917534,0.12357066,-0.10120011,-0.0053263213,-1.9165585,-0.5554548,8.700529
1742312694.8951144,-0.92919314,0.017498689,-0.0032154152,0.36916643,0.13209277,-0.11185275,0.006391586,-1.7609353,-0.8798691,9.964667
1742312694.8975737,-0.92919797,0.017427461,-0.0031254562,0.36915842,0.08841694,-0.13209277,-0.0021305287,-1.7609353,-0.8798691,9.964667
1742312694.899143,-0.9292033,0.01734391,-0.003008032,0.3691498,0.11611381,-0.14168015,-0.003195793,-1.7609353,-0.8798691,9.964667
1742312694.90138,-0.9292044,0.017294416,-0.002934017,0.3691496,0.13954963,-0.16298544,-0.008522115,-1.9009962,-0.5434838,9.635465
1742312694.9033582,-0.9292081,0.017180884,-0.0027862105,0.3691468,0.1523328,-0.149137,0.0021305287,-1.9009962,-0.5434838,9.635465
1742312694.9051554,-0.9292132,0.017006267,-0.002585414,0.36914346,0.149137,-0.1310275,-0.011717907,-1.5059528,-0.80564886,9.471462
1742312694.9074664,-0.92921555,0.016890993,-0.0024324125,0.36914414,0.1523328,-0.18429072,-0.010652643,-1.5059528,-0.80564886,9.471462
1742312694.9091485,-0.929219,0.016777072,-0.0022700715,0.36914164,0.14168015,-0.1640507,-0.0021305287,-1.5059528,-0.80564886,9.471462
1742312694.9118288,-0.929225,0.016689427,-0.002116397,0.3691314,0.13848436,-0.17150755,-0.0010652643,-1.6448165,-0.29688102,9.828198
1742312694.9147224,-0.9292265,0.016593054,-0.001971517,0.36913282,0.11717907,-0.14061488,-0.011717907,-1.6448165,-0.29688102,9.828198
1742312694.9159582,-0.92922866,0.016509293,-0.0018496679,0.3691319,0.11717907,-0.12996225,-0.008522115,-1.7908629,0.1364695,10.232818
1742312694.9177783,-0.92922896,0.01645096,-0.0017417534,0.3691343,0.063915856,-0.14487594,-0.006391586,-1.7908629,0.1364695,10.232818
1742312694.920197,-0.929228,0.016420063,-0.0016381446,0.3691383,0.029827401,-0.13528857,-0.008522115,-1.6232687,0.24660277,10.279505
1742312694.9217336,-0.9292265,0.016387451,-0.0015577613,0.36914393,0.051132686,-0.11398328,-0.013848436,-1.6232687,0.24660277,10.279505
1742312694.9235675,-0.9292251,0.016370986,-0.0015226868,0.3691484,0.036218986,-0.107591696,-0.015978964,-1.6232687,0.24660277,10.279505
1742312694.9252963,-0.9292145,0.016344968,-0.0014006682,0.36917672,0.013848436,-0.14807174,-0.029827401,-1.5454572,-0.025139118,10.448297
1742312694.9275625,-0.929209,0.016350562,-0.0013659286,0.3691906,-0.006391586,-0.121440135,-0.036218986,-1.5454572,-0.025139118,10.448297
1742312694.9292245,-0.9291919,0.016368812,-0.001291541,0.36923304,-0.02450108,-0.11185275,-0.03515372,-1.827973,-0.4285621,10.208876
1742312694.9314957,-0.92918515,0.016400315,-0.001269215,0.36924854,-0.06604639,-0.08309062,-0.019174758,-1.827973,-0.4285621,10.208876
1742312694.9333942,-0.92917657,0.016461212,-0.001280841,0.3692673,-0.079894826,-0.064981125,-0.03408846,-1.827973,-0.4285621,10.208876
1742312694.9352024,-0.9291664,0.01651333,-0.0012863596,0.3692909,-0.08202535,-0.075633764,-0.01704423,-2.2373815,0.5231331,9.362526
1742312694.9377317,-0.92916447,0.016519373,-0.0012767866,0.36929542,-0.026631609,-0.079894826,-0.0149137005,-2.2373815,0.5231331,9.362526
1742312694.9394755,-0.9291516,0.016600559,-0.0012796319,0.36932406,-0.0894822,-0.07350324,-0.038349517,-1.757344,-0.5315128,9.633071
1742312694.9421768,-0.9291407,0.016653866,-0.0013024415,0.36934897,-0.04900216,-0.028762136,-0.02237055,-1.757344,-0.5315128,9.633071
1742312694.9447834,-0.92913496,0.016583683,-0.0013441871,0.36936653,0.08415588,0.010652643,-0.025566343,-1.757344,-0.5315128,9.633071
1742312694.9461884,-0.9291486,0.016349638,-0.0014242548,0.36934212,0.23968448,0.15552859,0.047936894,-1.0642227,-2.9508536,12.044032
1742312694.9478416,-0.9291983,0.015811238,-0.0015488997,0.36924002,0.5081311,0.2716424,0.11717907,-1.0642227,-2.9508536,12.044032
1742312694.9492004,-0.92926544,0.015097991,-0.0016964239,0.36910036,0.6700513,0.35579827,0.16298544,-0.91219085,-9.673772,20.135237
1742312694.9514167,-0.9293426,0.014244606,-0.0018588952,0.36893907,0.79255664,0.44954154,0.17363809,-0.91219085,-9.673772,20.135237
1742312694.953414,-0.9294195,0.013248061,-0.002063581,0.36878154,0.9374326,0.5550027,0.16831176,-0.91219085,-9.673772,20.135237
1742312694.9551423,-0.9294993,0.012185285,-0.002418034,0.36861458,0.90014833,0.7424892,0.18748651,-1.4532804,-5.920861,18.124107
1742312694.957386,-0.92954504,0.011635505,-0.0026700653,0.3685155,0.8799083,0.8330367,0.22050971,-1.4532804,-5.920861,18.124107
1742312694.959626,-0.92965513,0.010051695,-0.0030965733,0.36828092,0.93210626,0.4804342,0.14168015,-1.2174516,0.10175357,11.3880205
1742312694.9620132,-0.92973065,0.008974371,-0.0033246719,0.36811602,0.9587379,0.616788,0.19813916,-1.2174516,0.10175357,11.3880205
1742312694.9645164,-0.929821,0.007981986,-0.0037740278,0.36790618,0.6743123,0.7201187,0.22583604,-1.2174516,0.10175357,11.3880205
1742312694.9662478,-0.92985684,0.0076724496,-0.003965976,0.36782044,0.45593312,0.54541534,0.18748651,0.39863458,1.1528081,2.6288335
1742312694.9681249,-0.92997336,0.0075865127,-0.0044420855,0.36752206,-0.30573085,0.22796656,0.21837918,0.39863458,1.1528081,2.6288335
1742312694.969275,-0.9300589,0.007850269,-0.0048562246,0.3672946,-0.42504045,0.25566342,0.2567287,-1.496376,5.3318872,7.1550717
1742312694.9716768,-0.9301541,0.008383437,-0.005357828,0.36703494,-0.7733819,0.21305287,0.29188243,-1.496376,5.3318872,7.1550717
1742312694.9737666,-0.9302611,0.009149717,-0.0058011813,0.3667384,-0.9917611,0.040480044,0.33342773,-1.496376,5.3318872,7.1550717
1742312694.9753406,-0.9303212,0.009639178,-0.005998573,0.3665702,-1.1089401,-0.04261057,0.36218986,-2.2876596,2.861071,7.6949644
1742312694.97767,-0.9304445,0.0106362365,-0.006422922,0.36622235,-1.1483549,-0.01704423,0.3760383,-2.2876596,2.861071,7.6949644
1742312694.9793403,-0.9306253,0.012202486,-0.0068957563,0.3657052,-1.1824434,-0.2631203,0.3675162,-2.0733786,0.724246,5.6563015
1742312694.9816942,-0.9307478,0.0131013,-0.007035233,0.36535925,-0.8277104,-0.25779396,0.34834144,-2.0733786,0.724246,5.6563015
1742312694.9838827,-0.93080026,0.013465397,-0.007064826,0.365212,-0.75953346,-0.28122976,0.30892664,-2.0733786,0.724246,5.6563015
1742312694.9857533,-0.9309357,0.014372087,-0.0069575827,0.36483404,-0.60826594,-0.3792341,0.27803397,1.3192052,-1.1695676,6.5481415
1742312694.987932,-0.93103814,0.014919973,-0.0068689054,0.36455202,-0.41545308,-0.30253506,0.2833603,1.3192052,-1.1695676,6.5481415
1742312694.9894426,-0.93112534,0.015428328,-0.006723505,0.3643108,-0.4623247,-0.3792341,0.24714132,0.019153614,-1.2330139,5.279215
1742312694.9917715,-0.9312212,0.015982393,-0.006449725,0.36404696,-0.42930153,-0.48895633,0.2833603,0.019153614,-1.2330139,5.279215
1742312694.9936104,-0.93131155,0.016584916,-0.0062590903,0.36379206,-0.51239216,-0.43569311,0.24927185,0.019153614,-1.2330139,5.279215
1742312694.9952834,-0.93139875,0.017042749,-0.0060425084,0.36355138,-0.33342773,-0.3877562,0.25885922,-0.6619968,-2.4253263,5.225345
1742312694.9982314,-0.931498,0.017312301,-0.005817482,0.36328787,-0.07882956,-0.36858144,0.26738134,-0.6619968,-2.4253263,5.225345
1742312694.9991887,-0.93160224,0.01757618,-0.005608049,0.36301115,-0.14594121,-0.34088457,0.2801645,-0.19033903,-5.374983,8.019379
1742312695.0015194,-0.93169534,0.01786722,-0.0053908266,0.3627611,-0.1789644,-0.30253506,0.25353292,-0.19033903,-5.374983,8.019379
1742312695.0033772,-0.93177956,0.018149683,-0.005284363,0.36253214,-0.149137,-0.23861921,0.23648869,-0.19033903,-5.374983,8.019379
1742312695.0051897,-0.9318608,0.018377876,-0.0051141246,0.36231413,-0.08841694,-0.26098976,0.21411812,2.15957,-1.8866309,8.100781
1742312695.0076177,-0.9318962,0.01846236,-0.0050203344,0.36222017,-0.04154531,-0.25246763,0.19174758,2.15957,-1.8866309,8.100781
1742312695.0093846,-0.93199366,0.018678099,-0.0048216498,0.36196095,-0.043675836,-0.17257282,0.16298544,1.9632454,-0.5434838,8.465898
1742312695.0118513,-0.932023,0.01872335,-0.0047449158,0.3618844,0.003195793,-0.17683388,0.15659386,1.9632454,-0.5434838,8.465898
1742312695.0135071,-0.9321156,0.018772148,-0.0045258007,0.3616457,0.13635384,-0.11185275,0.18322547,0.9864111,-2.7700913,8.086416
1742312695.0153277,-0.9321921,0.018677795,-0.0044029905,0.36145505,0.1789644,-0.0894822,0.20133495,0.9864111,-2.7700913,8.086416
1742312695.0179513,-0.93226856,0.018536206,-0.00423922,0.36126694,0.23755394,-0.106526434,0.19600864,0.9864111,-2.7700913,8.086416
1742312695.0193794,-0.9323528,0.01838704,-0.0041305507,0.36105877,0.21731392,-0.029827401,0.21837918,0.91099375,-4.745308,8.528147
1742312695.0216606,-0.9324336,0.018241743,-0.0040678927,0.360858,0.19174758,-0.0021305287,0.21305287,0.91099375,-4.745308,8.528147
1742312695.0235846,-0.9324761,0.018163664,-0.0040264577,0.36075225,0.22903183,-0.02450108,0.22157498,0.91099375,-4.745308,8.528147
1742312695.025691,-0.9325888,0.017845906,-0.003935292,0.36047772,0.2684466,0.05006742,0.17576861,0.8738836,-2.4779987,8.603564
1742312695.027685,-0.93265915,0.017586982,-0.0038773143,0.36030915,0.29507822,0.029827401,0.17576861,0.8738836,-2.4779987,8.603564
1742312695.0293512,-0.93272346,0.017292146,-0.0038219772,0.36015764,0.35899407,0.06178533,0.16511597,0.44651863,-1.6124948,9.657013
1742312695.03168,-0.9328005,0.016968794,-0.003823375,0.35997328,0.3494067,0.11291802,0.1938781,0.44651863,-1.6124948,9.657013
1742312695.0336363,-0.93287003,0.016632877,-0.003776077,0.35980913,0.33662352,0.063915856,0.17470334,0.35913026,-1.5682021,9.810242
1742312695.0358071,-0.9329327,0.016291413,-0.0037439156,0.35966268,0.36325514,0.09587379,0.15020227,0.35913026,-1.5682021,9.810242
1742312695.0379815,-0.9330248,0.015797587,-0.0037232195,0.35944572,0.30892664,0.091612734,0.14700648,0.34715924,-1.2677298,9.953894
1742312695.0393314,-0.9330549,0.015643116,-0.0036927734,0.35937482,0.32916668,0.04154531,0.14807174,0.34715924,-1.2677298,9.953894
1742312695.0417583,-0.9331146,0.015336459,-0.0036556977,0.35923347,0.3249056,0.059654802,0.15126753,0.34715924,-1.2677298,9.953894
1742312695.0435295,-0.9331787,0.015047042,-0.0036319145,0.35907942,0.2716424,0.07669903,0.16511597,-0.04070143,-1.8614918,9.797073
1742312695.045323,-0.9332394,0.014806034,-0.0036018577,0.35893196,0.23648869,0.03728425,0.15765911,-0.04070143,-1.8614918,9.797073
1742312695.0481577,-0.9333045,0.014580952,-0.0035748174,0.35877195,0.23861921,0.04154531,0.17257282,-0.04070143,-1.8614918,9.797073
1742312695.0493007,-0.9333679,0.0143569885,-0.003546473,0.35861638,0.23222762,0.038349517,0.15659386,-0.34955344,-1.0007763,10.547656
1742312695.0515187,-0.9334311,0.014168884,-0.0035341207,0.35845953,0.1821602,0.028762136,0.15978965,-0.34955344,-1.0007763,10.547656
1742312695.0533707,-0.9334927,0.014006292,-0.0035077825,0.35830575,0.1640507,0.006391586,0.16618124,-0.58657944,-0.272939,10.503363
1742312695.0551875,-0.93355167,0.013871622,-0.0034543467,0.35815772,0.13635384,-0.04154531,0.1523328,-0.58657944,-0.272939,10.503363
1742312695.0575078,-0.9336108,0.013765159,-0.0034233087,0.35800815,0.091612734,-0.021305285,0.15978965,-0.58657944,-0.272939,10.503363
1742312695.0591826,-0.9336676,0.0136697125,-0.0033708632,0.35786402,0.105461165,-0.059654802,0.15126753,-0.5446809,-0.5374983,10.6877165
1742312695.062162,-0.9337255,0.0136020975,-0.003287971,0.35771665,0.090547465,-0.08628641,0.15978965,-0.5446809,-0.5374983,10.6877165
1742312695.0637689,-0.93378544,0.013554567,-0.0032143884,0.35756245,0.055393744,-0.08309062,0.15659386,-0.58418524,-0.80086046,10.630256
1742312695.0658045,-0.9338441,0.01352584,-0.003136209,0.3574111,0.053263217,-0.090547465,0.15765911,-0.58418524,-0.80086046,10.630256
1742312695.0674653,-0.9339042,0.013491599,-0.0030486917,0.35725594,0.05219795,-0.107591696,0.16831176,-0.58418524,-0.80086046,10.630256
1742312695.0695953,-0.9339646,0.013452523,-0.0029471044,0.35709998,0.063915856,-0.12570119,0.16724649,-0.6715736,-1.1552023,10.035296
1742312695.0716987,-0.93402606,0.013433705,-0.002831926,0.3569412,0.05645901,-0.1342233,0.16831176,-0.6715736,-1.1552023,10.035296
1742312695.0736325,-0.9340898,0.013418729,-0.0027274403,0.35677558,0.040480044,-0.13209277,0.17363809,-0.49919105,-1.0785879,10.341754
1742312695.0752647,-0.93415195,0.013409875,-0.0026364776,0.35661376,0.040480044,-0.11824434,0.16618124,-0.49919105,-1.0785879,10.341754
1742312695.077885,-0.9342072,0.013422049,-0.0025416093,0.3564692,0.020240022,-0.1310275,0.14487594,-0.49919105,-1.0785879,10.341754
1742312695.0792425,-0.9342585,0.013447163,-0.0024257412,0.3563347,0.010652643,-0.149137,0.13741909,-0.12928689,-0.7625532,10.394426
1742312695.0815754,-0.9342848,0.013460792,-0.0023754635,0.3562656,0.008522115,-0.13528857,0.14168015,-0.12928689,-0.7625532,10.394426
1742312695.0834348,-0.93433553,0.013488628,-0.0022793196,0.35613206,0.008522115,-0.1225054,0.13635384,-0.12928689,-0.7625532,10.394426
1742312695.0853207,-0.93441474,0.013543827,-0.0021001084,0.35592327,0.003195793,-0.16298544,0.13741909,-0.079008654,-0.8367735,9.719262
1742312695.0872107,-0.9344621,0.013565041,-0.0019665034,0.3557989,0.02237055,-0.16724649,0.12996225,-0.079008654,-0.8367735,9.719262
1742312695.0895846,-0.934486,0.013579385,-0.0019033966,0.355736,0.015978964,-0.15659386,0.12783171,-0.272939,-1.0857705,9.36492
1742312695.0913928,-0.9345563,0.013618408,-0.0016939733,0.35555086,0.03515372,-0.15659386,0.12463593,-0.272939,-1.0857705,9.36492
1742312695.0934315,-0.9345771,0.0136260595,-0.0016266195,0.35549578,0.033023193,-0.15978965,0.11078749,-0.272939,-1.0857705,9.36492
1742312695.0961292,-0.93464035,0.013635091,-0.0014163692,0.35533056,0.043675836,-0.15659386,0.11824434,-0.12449849,-1.0749966,9.020155
1742312695.0975509,-0.93467915,0.013626314,-0.0012634883,0.35522896,0.07243797,-0.16831176,0.09906958,-0.12449849,-1.0749966,9.020155
1742312695.099411,-0.9347216,0.013602381,-0.0011049629,0.35511878,0.08841694,-0.17044228,0.105461165,-0.17597382,-1.6783354,9.029732
1742312695.1017075,-0.9347643,0.01356666,-0.00091402256,0.35500824,0.105461165,-0.19707389,0.10972223,-0.17597382,-1.6783354,9.029732
1742312695.1037362,-0.9347831,0.013536881,-0.0008116958,0.3549603,0.13528857,-0.19707389,0.09374326,-0.033518825,-1.5310919,8.966286
1742312695.105919,-0.93483806,0.013459597,-0.00055174326,0.35481894,0.09693905,-0.16937703,0.08841694,-0.033518825,-1.5310919,8.966286
1742312695.1076167,-0.93487614,0.0134251565,-0.00038939854,0.35472,0.09374326,-0.17044228,0.092677996,0.33399114,-0.7278373,9.028535
1742312695.1092587,-0.93491226,0.013393411,-0.00023122696,0.3546262,0.09693905,-0.15126753,0.0894822,0.33399114,-0.7278373,9.028535
1742312695.111339,-0.93494815,0.013354046,-6.977183e-05,0.3545334,0.092677996,-0.15978965,0.09480853,0.33399114,-0.7278373,9.028535
1742312695.113517,-0.9349801,0.013321569,0.000103114646,0.3544503,0.09906958,-0.17150755,0.07882956,0.01316811,-1.3072342,8.689755
1742312695.1152399,-0.93501455,0.013286421,0.00027947366,0.35436052,0.10226537,-0.1789644,0.08309062,0.01316811,-1.3072342,8.689755
1742312695.1181512,-0.93504846,0.013237981,0.0004706823,0.3542729,0.11824434,-0.18429072,0.08415588,-0.22744916,-1.4652514,8.568848
1742312695.1193826,-0.9350789,0.013190976,0.00066374015,0.3541935,0.121440135,-0.18642126,0.07882956,-0.22744916,-1.4652514,8.568848
1742312695.1219609,-0.93511164,0.013148459,0.00085167005,0.3541083,0.10865696,-0.18642126,0.08415588,-0.22744916,-1.4652514,8.568848
1742312695.1237864,-0.9351403,0.013099674,0.0010409579,0.35403395,0.12783171,-0.18642126,0.07669903,-0.19033903,-1.1611878,9.089587
1742312695.1258452,-0.93517023,0.013051668,0.001208265,0.35395607,0.1225054,-0.17363809,0.07137271,-0.19033903,-1.1611878,9.089587
1742312695.1275406,-0.93519974,0.0130036995,0.0013764141,0.35387918,0.107591696,-0.16618124,0.06817692,-0.08020575,-0.8607155,8.883685
1742312695.129284,-0.93522674,0.012964416,0.0015568925,0.35380855,0.105461165,-0.17683388,0.0745685,-0.08020575,-0.8607155,8.883685
1742312695.1316476,-0.93524057,0.012948254,0.001645533,0.35377228,0.09800432,-0.18002968,0.06924218,-0.08020575,-0.8607155,8.883685
1742312695.1332583,-0.93528205,0.012890296,0.0019099534,0.35366338,0.10120011,-0.18642126,0.06924218,-0.4177882,-1.2198458,8.887277
1742312695.1352456,-0.9353078,0.012855385,0.0020899174,0.35359567,0.107591696,-0.18961705,0.06711165,-0.4177882,-1.2198458,8.887277
1742312695.1377854,-0.935332,0.012819144,0.0022660254,0.35353193,0.09906958,-0.18642126,0.05752427,-0.40102878,-1.0079589,8.90643
1742312695.1393628,-0.93535596,0.0128030125,0.002448529,0.35346758,0.090547465,-0.1938781,0.05752427,-0.40102878,-1.0079589,8.90643
1742312695.1417353,-0.9353784,0.012803378,0.002624788,0.35340697,0.06817692,-0.19494337,0.058589537,-0.40102878,-1.0079589,8.90643
1742312695.1438088,-0.9353914,0.012800401,0.002713882,0.35337216,0.07243797,-0.19494337,0.06604639,-0.34596214,-0.7613561,9.313444
1742312695.1459317,-0.93541175,0.012797229,0.0029076836,0.35331655,0.07882956,-0.21518339,0.04687163,-0.34596214,-0.7613561,9.313444
1742312695.1479752,-0.93544453,0.012774778,0.0032002928,0.3532283,0.08415588,-0.19813916,0.05006742,-0.3842694,-1.1707647,9.012972
1742312695.1494722,-0.9354652,0.012774114,0.003404401,0.35317144,0.07669903,-0.22583604,0.060720067,-0.3842694,-1.1707647,9.012972
1742312695.1514957,-0.9354846,0.012785577,0.0035979995,0.35311782,0.053263217,-0.20985708,0.047936894,-0.3842694,-1.1707647,9.012972
1742312695.15326,-0.9355038,0.012798465,0.003801093,0.35306448,0.059654802,-0.2269013,0.051132686,-0.39504328,-1.0857705,9.599552
1742312695.1555943,-0.9355249,0.012839292,0.0039995788,0.3530049,0.030892665,-0.22583604,0.05752427,-0.39504328,-1.0857705,9.599552
1742312695.1575499,-0.93554634,0.012886839,0.0041759345,0.35294434,0.020240022,-0.2237055,0.058589537,-0.4441244,-0.8559271,9.76116
1742312695.1591513,-0.9355641,0.012930653,0.004363829,0.35289347,0.025566343,-0.22264025,0.043675836,-0.4441244,-0.8559271,9.76116
1742312695.1617472,-0.93558246,0.012969768,0.004563999,0.35284078,0.029827401,-0.23009709,0.05006742,-0.4441244,-0.8559271,9.76116
1742312695.163332,-0.9356005,0.013016718,0.0047710347,0.3527884,0.023435814,-0.23116235,0.05219795,-0.49200845,-1.4185646,9.41879
1742312695.1659863,-0.9356185,0.013054239,0.004948768,0.35273653,0.028762136,-0.22477077,0.04261057,-0.49200845,-1.4185646,9.41879
1742312695.167902,-0.9356402,0.013141278,0.0051443665,0.35267308,-0.015978964,-0.25885922,0.051132686,-0.38307226,-1.1587936,9.759963
1742312695.169335,-0.93565834,0.013280271,0.005345752,0.35261685,-0.058589537,-0.2684466,0.051132686,-0.38307226,-1.1587936,9.759963
1742312695.1715746,-0.9356779,0.013441019,0.005526431,0.3525562,-0.07669903,-0.25459817,0.063915856,-0.38307226,-1.1587936,9.759963
1742312695.173498,-0.9356888,0.013532381,0.005614899,0.35252228,-0.1043959,-0.2631203,0.064981125,-0.320823,-0.82360536,9.192537
1742312695.1757445,-0.93571323,0.013803269,0.0059078704,0.3524422,-0.11398328,-0.27377293,0.04261057,-0.320823,-0.82360536,9.192537
1742312695.177749,-0.9357246,0.013995407,0.006061795,0.35240188,-0.12676646,-0.23755394,0.036218986,-0.260968,-1.3443443,9.685743
1742312695.1792977,-0.9357355,0.014187714,0.0062087076,0.3523627,-0.14594121,-0.22583604,0.036218986,-0.260968,-1.3443443,9.685743
1742312695.1818292,-0.935741,0.014295839,0.006277476,0.35234225,-0.15020227,-0.23648869,0.03728425,-0.260968,-1.3443443,9.685743
1742312695.1837776,-0.93575096,0.014562122,0.006353308,0.35230345,-0.23861921,-0.19281285,0.04154531,0.3878607,-0.7721301,10.131064
1742312695.1857932,-0.9357339,0.015113982,0.0061749835,0.35232902,-0.47830367,0.040480044,-0.055393744,0.3878607,-0.7721301,10.131064
1742312695.1879563,-0.9357161,0.015386959,0.0059784795,0.35236773,-0.6519418,0.1523328,-0.07137271,0.3878607,-0.7721301,10.131064
1742312695.1962214,-0.93565434,0.016461868,0.0050598555,0.35249743,-1.023719,0.35686356,-0.11291802,2.754529,4.2293572,18.411411
1742312695.1967967,-0.93558383,0.017232923,0.004307284,0.3526578,-1.0290453,0.4420847,-0.14168015,2.754529,4.2293572,18.411411
1742312695.1969428,-0.93551517,0.018104395,0.0033860025,0.3528062,-1.1803129,0.6072007,-0.12783171,2.0494366,5.133168,22.865824
1742312695.197118,-0.9354444,0.018712446,0.0025433567,0.35296917,-0.84262407,0.53582793,-0.14061488,2.0494366,5.133168,22.865824
1742312695.1981022,-0.93539894,0.018866925,0.0020312162,0.353085,-0.23968448,0.42930153,-0.10865696,-1.1204864,-5.567716,18.328812
1742312695.199414,-0.93535,0.018778056,0.0015363491,0.3532216,-0.058589537,0.4868258,-0.14274542,-1.1204864,-5.567716,18.328812
1742312695.2014356,-0.9352849,0.018386705,0.001413202,0.3534149,0.36858144,0.18002968,-0.22157498,-1.8938135,-8.183381,12.376825
1742312695.2033606,-0.93520916,0.017811606,0.0013224711,0.3536453,0.5613943,0.27377293,-0.25885922,-1.8938135,-8.183381,12.376825
1742312695.2052543,-0.93512523,0.017013632,0.0013729308,0.35390615,0.7829693,0.22477077,-0.2865561,-1.8938135,-8.183381,12.376825
1742312695.2071755,-0.93503875,0.0160602,0.0015911475,0.35417825,1.1238538,0.04687163,-0.31531823,-0.39624038,-5.380968,11.911154
1742312695.209258,-0.93495333,0.014843429,0.002022268,0.35445458,1.3614078,-0.019174758,-0.31425297,-0.39624038,-5.380968,11.911154
1742312695.2118719,-0.9348657,0.01365076,0.0024975364,0.35473022,1.2101402,-0.060720067,-0.31851402,1.5286977,-0.7613561,7.953538
1742312695.2138226,-0.9347725,0.012825402,0.0027800414,0.35500482,0.8532767,0.010652643,-0.29081717,1.5286977,-0.7613561,7.953538
1742312695.2159035,-0.93468815,0.012108216,0.0029900712,0.35525012,0.77231663,0.053263217,-0.27590346,1.5286977,-0.7613561,7.953538
1742312695.2174442,-0.93464464,0.011764281,0.003134912,0.35537472,0.76379454,-0.03728425,-0.28122976,0.47165772,2.3666685,6.5720835
1742312695.2193348,-0.9345092,0.010825352,0.0035466114,0.35575664,0.5613943,0.010652643,-0.2897519,0.47165772,2.3666685,6.5720835
1742312695.2216654,-0.9344124,0.010303353,0.0037152343,0.35602462,0.48576054,0.012783172,-0.30360034,-0.21188685,2.1894975,3.8881836
1742312695.2233922,-0.9343603,0.010084638,0.003791758,0.35616708,0.44314995,0.0021305287,-0.31425297,-0.21188685,2.1894975,3.8881836
1742312695.2252002,-0.93419284,0.009321969,0.004063179,0.35662377,0.5315669,0.036218986,-0.33662352,-0.21188685,2.1894975,3.8881836
1742312695.2275515,-0.9340908,0.008723371,0.004160998,0.3569049,0.576308,0.11504854,-0.3046656,0.0035913025,2.3427265,5.693412
1742312695.229258,-0.9340001,0.008155678,0.004239095,0.35715482,0.48576054,0.10865696,-0.2663161,0.0035913025,2.3427265,5.693412
1742312695.2316716,-0.93392414,0.0075575397,0.0043475563,0.3573651,0.5262406,0.13209277,-0.23009709,1.9883845,-0.59735334,5.0493712
1742312695.233671,-0.93385947,0.0069574085,0.0043838816,0.3575457,0.5283711,0.18002968,-0.1906823,1.9883845,-0.59735334,5.0493712
1742312695.2357512,-0.9337992,0.006398234,0.0043788967,0.35771385,0.44847628,0.23435815,-0.18855178,1.9883845,-0.59735334,5.0493712
1742312695.237813,-0.9337394,0.0058584106,0.0043751975,0.35787895,0.48576054,0.20453075,-0.18109493,1.2306197,0.033518825,6.196194
1742312695.239317,-0.9336854,0.00536602,0.0043441704,0.35802782,0.40693095,0.22583604,-0.16298544,1.2306197,0.033518825,6.196194
1742312695.2418573,-0.9336319,0.0048696743,0.0043198816,0.35817495,0.4026699,0.22050971,-0.15659386,0.58777654,0.81283146,5.3701944
1742312695.2435162,-0.9336079,0.0046365876,0.004281708,0.35824108,0.37497303,0.24927185,-0.14700648,0.58777654,0.81283146,5.3701944
1742312695.2457063,-0.9335351,0.0039100526,0.004155212,0.3584408,0.35686356,0.2716424,-0.1523328,0.58777654,0.81283146,5.3701944
1742312695.2476666,-0.93348783,0.0034233062,0.0040841736,0.35856965,0.41225728,0.23648869,-0.14700648,1.1324574,0.8511387,6.5146227
1742312695.249377,-0.933444,0.0029602954,0.004021544,0.3586885,0.38988674,0.23542342,-0.12889698,1.1324574,0.8511387,6.5146227
1742312695.2518175,-0.9333977,0.0024522676,0.0039627403,0.35881326,0.41438782,0.262055,-0.13848436,1.1240777,0.06344634,7.0593038
1742312695.253642,-0.93337667,0.002190161,0.003913649,0.35887063,0.41864887,0.29081717,-0.12889698,1.1240777,0.06344634,7.0593038
1742312695.255627,-0.9333097,0.0014200419,0.0038500852,0.3590491,0.40373516,0.23648869,-0.12889698,1.1240777,0.06344634,7.0593038
1742312695.2576733,-0.93327045,0.00094465975,0.0037597166,0.35915366,0.36858144,0.27057713,-0.11291802,0.2657564,0.24899697,7.9571295
1742312695.259279,-0.9332323,0.000500103,0.0036345692,0.35925478,0.33023193,0.28762138,-0.107591696,0.2657564,0.24899697,7.9571295
1742312695.2616796,-0.93321437,0.00029079802,0.0035718842,0.35930243,0.31851402,0.26738134,-0.107591696,0.2657564,0.24899697,7.9571295
1742312695.2633815,-0.9331708,-0.00027362912,0.0033413367,0.3594175,0.24820659,0.2599245,-0.0894822,-0.17717093,0.34955344,8.406042
1742312695.2652736,-0.9331379,-0.00058312854,0.0031735732,0.3595042,0.18002968,0.25140238,-0.10120011,-0.17717093,0.34955344,8.406042
1742312695.267479,-0.9331085,-0.0008935011,0.0029939273,0.3595815,0.20453075,0.27057713,-0.08309062,0.260968,0.24779987,8.626308
1742312695.2691746,-0.9330832,-0.0012131078,0.002783628,0.35964802,0.21837918,0.30040455,-0.07137271,0.260968,0.24779987,8.626308
1742312695.2715154,-0.9330596,-0.0015237285,0.0025878944,0.3597094,0.18855178,0.2801645,-0.07137271,0.7745243,-0.08738836,8.437167
1742312695.273187,-0.9330359,-0.0018103739,0.002401705,0.3597709,0.17683388,0.27590346,-0.07350324,0.7745243,-0.08738836,8.437167
1742312695.2751832,-0.9330108,-0.0020997012,0.0022103807,0.35983583,0.18429072,0.2716424,-0.07243797,0.7745243,-0.08738836,8.437167
1742312695.2773538,-0.93297917,-0.0024360446,0.0020531781,0.35991633,0.25246763,0.24927185,-0.08735167,0.39504328,0.2825158,9.064447
1742312695.2791965,-0.93294895,-0.0027698209,0.0019212603,0.35999313,0.25779396,0.22050971,-0.08628641,0.39504328,0.2825158,9.064447
1742312695.2818267,-0.93293476,-0.0029249399,0.0018571513,0.3600291,0.22264025,0.22264025,-0.08202535,0.39504328,0.2825158,9.064447
1742312695.2835693,-0.932889,-0.0033700652,0.001650022,0.3601447,0.22477077,0.2087918,-0.09693905,0.047884032,-0.30406362,9.621099
1742312695.2860923,-0.9328574,-0.0036724752,0.0015234915,0.36022398,0.21518339,0.21305287,-0.08202535,0.12569559,-0.29448682,9.92636
1742312695.2883582,-0.9328275,-0.003971348,0.0013844373,0.3602989,0.19281285,0.22583604,-0.08841694,0.12569559,-0.29448682,9.92636
1742312695.289391,-0.9328019,-0.004231503,0.0012491447,0.36036268,0.17789914,0.19707389,-0.06924218,0.12569559,-0.29448682,9.92636
1742312695.291747,-0.9327864,-0.004347316,0.0011871242,0.3604018,0.15872438,0.18535599,-0.08841694,0.2753332,-0.39264908,10.101137
1742312695.2932653,-0.93274593,-0.0046816673,0.0009887378,0.36050302,0.14487594,0.18642126,-0.07137271,0.2753332,-0.39264908,10.101137
1742312695.2951021,-0.93271476,-0.004894805,0.0008673997,0.36058092,0.13635384,0.17257282,-0.08735167,0.1352724,-0.20590134,10.831368
1742312695.2975137,-0.9326814,-0.0050851805,0.00075220014,0.36066493,0.107591696,0.1608549,-0.10120011,0.1352724,-0.20590134,10.831368
1742312695.2992208,-0.93264455,-0.005280763,0.00062839105,0.3607573,0.12570119,0.17470334,-0.10013484,0.1352724,-0.20590134,10.831368
1742312695.3014443,-0.93262815,-0.005372667,0.000563334,0.36079863,0.11291802,0.17257282,-0.092677996,-0.04309563,0.1352724,10.404003
1742312695.3035274,-0.9325927,-0.0055759656,0.0004784099,0.3608873,0.15020227,0.12676646,-0.10013484,-0.04309563,0.1352724,10.404003
1742312695.3057148,-0.9325447,-0.0058622276,0.0003178607,0.3610069,0.12357066,0.14168015,-0.08841694,0.18315643,-0.24301147,11.195287
1742312695.307414,-0.93251365,-0.006023299,0.0002143985,0.36108452,0.10865696,0.149137,-0.0894822,0.18315643,-0.24301147,11.195287
1742312695.309419,-0.9324962,-0.0061122943,0.00016549104,0.36112824,0.11824434,0.13954963,-0.09800432,0.18315643,-0.24301147,11.195287
1742312695.3115523,-0.9324436,-0.006342801,1.681808e-06,0.36126018,0.09906958,0.13315804,-0.106526434,0.41060558,-0.29328972,10.606314
1742312695.3132057,-0.9324118,-0.0064664995,-0.00010096351,0.36134005,0.059654802,0.12676646,-0.08628641,0.41060558,-0.29328972,10.606314
1742312695.3155549,-0.93237805,-0.0066023604,-0.00021024774,0.36142427,0.07137271,0.14700648,-0.08735167,0.260968,-0.02873042,11.000159
1742312695.3174362,-0.9323432,-0.0067369407,-0.00034107716,0.36151162,0.075633764,0.15659386,-0.1043959,0.260968,-0.02873042,11.000159
1742312695.3192136,-0.932312,-0.006864703,-0.0004562103,0.36158952,0.06604639,0.1523328,-0.08415588,0.260968,-0.02873042,11.000159
1742312695.3218539,-0.9322826,-0.006971504,-0.0005717616,0.36166307,0.03941478,0.11824434,-0.077764295,0.1364695,-0.1448492,10.898406
1742312695.3234,-0.9322516,-0.0070543373,-0.00069921295,0.36174136,0.008522115,0.13315804,-0.09480853,0.1364695,-0.1448492,10.898406
1742312695.3257937,-0.9322203,-0.00713589,-0.000831982,0.36182013,0.013848436,0.14061488,-0.09693905,0.12210429,-0.015562311,10.371682
1742312695.327727,-0.9321875,-0.0071968175,-0.000975239,0.3619031,-0.021305285,0.13315804,-0.08735167,0.12210429,-0.015562311,10.371682
1742312695.3293762,-0.9321526,-0.007237453,-0.0011093807,0.36199167,-0.02450108,0.12357066,-0.10226537,0.12210429,-0.015562311,10.371682
1742312695.331562,-0.9321145,-0.0072637573,-0.0012558389,0.3620888,-0.04687163,0.13209277,-0.10226537,0.18195933,0.5530606,9.64983
1742312695.3332174,-0.9320805,-0.0072600935,-0.0014109516,0.36217576,-0.08628641,0.1225054,-0.09480853,0.18195933,0.5530606,9.64983
1742312695.335575,-0.93204725,-0.007230248,-0.0015652011,0.3622614,-0.107591696,0.121440135,-0.09480853,0.22505496,0.32441434,9.428367
1742312695.3374255,-0.93201435,-0.0071912506,-0.0017221371,0.36234614,-0.11398328,0.11291802,-0.09480853,0.22505496,0.32441434,9.428367
1742312695.3391974,-0.9319804,-0.007131218,-0.0018778443,0.36243397,-0.14807174,0.11611381,-0.09906958,0.22505496,0.32441434,9.428367
1742312695.3417156,-0.9319477,-0.0070337956,-0.0020397708,0.36251915,-0.17789914,0.106526434,-0.091612734,0.25258827,0.22984336,9.083601
1742312695.3442261,-0.9319168,-0.0069150263,-0.0022068396,0.36259994,-0.1906823,0.09480853,-0.08309062,0.25258827,0.22984336,9.083601
1742312695.3456664,-0.9318882,-0.0067894217,-0.00238492,0.3626743,-0.19813916,0.10972223,-0.08202535,0.22385786,0.439336,9.00579
1742312695.347882,-0.93186224,-0.0066572903,-0.0025614365,0.3627423,-0.20772654,0.107591696,-0.07350324,0.22385786,0.439336,9.00579
1742312695.3494027,-0.9318355,-0.0065247966,-0.0027334061,0.36281225,-0.2087918,0.10226537,-0.08096009,0.22385786,0.439336,9.00579
1742312695.3518393,-0.9318074,-0.0063716434,-0.0029024072,0.36288574,-0.23222762,0.08415588,-0.08096009,0.22744916,-0.14724341,8.615535
1742312695.3535068,-0.9317867,-0.0062033185,-0.0030721084,0.3629405,-0.23329288,0.08522114,-0.05219795,0.22744916,-0.14724341,8.615535
1742312695.355511,-0.9317767,-0.006115064,-0.0031485087,0.36296704,-0.23755394,0.06604639,-0.058589537,0.22744916,-0.14724341,8.615535
1742312695.3576288,-0.93174666,-0.005865577,-0.0033787333,0.36304626,-0.22050971,0.077764295,-0.05219795,0.10654198,-0.320823,8.771158
1742312695.3593879,-0.93173766,-0.005790476,-0.003456728,0.3630698,-0.21092233,0.077764295,-0.05219795,0.10654198,-0.320823,8.771158
1742312695.3615494,-0.931716,-0.005575775,-0.0036497994,0.36312678,-0.18109493,0.05752427,-0.053263217,0.1412579,-0.50876784,8.686164
1742312695.3632822,-0.93170375,-0.005442482,-0.0037773014,0.3631587,-0.18002968,0.058589537,-0.031957928,0.1412579,-0.50876784,8.686164
1742312695.366077,-0.9316894,-0.0053082034,-0.003907468,0.36319613,-0.18002968,0.060720067,-0.0447411,0.16998832,-0.10534488,8.322245
1742312695.3673294,-0.93167466,-0.0051600966,-0.0040137568,0.363235,-0.19281285,0.03408846,-0.043675836,0.16998832,-0.10534488,8.322245
1742312695.3693402,-0.9316633,-0.005004522,-0.0041377824,0.36326504,-0.19494337,0.045806367,-0.03515372,0.16998832,-0.10534488,8.322245
1742312695.3716745,-0.9316546,-0.004859849,-0.0042510224,0.36328804,-0.18535599,0.03515372,-0.023435814,0.23463176,-0.0011971008,8.700529
1742312695.3732183,-0.93164396,-0.004711363,-0.0043625655,0.36331597,-0.18855178,0.03728425,-0.03728425,0.23463176,-0.0011971008,8.700529
1742312695.375431,-0.9316358,-0.004557583,-0.004493437,0.36333707,-0.20985708,0.059654802,-0.02450108,0.30645782,-0.093373865,8.711303
1742312695.3774517,-0.9316303,-0.0043994044,-0.004616994,0.36335167,-0.20026968,0.045806367,-0.021305285,0.30645782,-0.093373865,8.711303
1742312695.3791456,-0.93162614,-0.0042122523,-0.004755164,0.36336297,-0.241815,0.05432848,-0.0149137005,0.10654198,0.39624038,9.114726
1742312695.3815234,-0.93162394,-0.0041134655,-0.0048356624,0.3633687,-0.25779396,0.06604639,-0.013848436,0.10654198,0.39624038,9.114726
1742312695.3843005,-0.93161434,-0.0038072835,-0.0050868094,0.3633933,-0.27590346,0.079894826,-0.02450108,0.10654198,0.39624038,9.114726
1742312695.3856764,-0.9316096,-0.003576455,-0.0052702897,0.3634048,-0.30253506,0.07669903,-0.013848436,0.12330139,0.49200845,9.607931
1742312695.3878474,-0.93160796,-0.0034497138,-0.0053702784,0.36340868,-0.32916668,0.08096009,-0.009587379,0.12330139,0.49200845,9.607931
1742312695.3893971,-0.9315999,-0.0030548088,-0.0056869895,0.36342826,-0.34408036,0.07030744,-0.01704423,0.17956513,0.14844051,9.404425
1742312695.3917155,-0.9315955,-0.0027692907,-0.00591094,0.36343807,-0.37284252,0.10120011,-0.0074568503,0.17956513,0.14844051,9.404425
1742312695.3934035,-0.93159014,-0.0024972484,-0.0061495216,0.36344984,-0.35366777,0.10972223,-0.010652643,0.17956513,0.14844051,9.404425
1742312695.3956552,-0.93158793,-0.0022280216,-0.0063935122,0.36345324,-0.36325514,0.119309604,-0.003195793,0.11133038,-0.08738836,9.613917
1742312695.398481,-0.9315832,-0.0019707803,-0.006634088,0.36346248,-0.3494067,0.12463593,-0.006391586,0.11133038,-0.08738836,9.613917
1742312695.3994174,-0.93157995,-0.0017201519,-0.006889351,0.36346725,-0.34514564,0.13635384,-0.0074568503,0.15682021,-0.12330139,9.603143
1742312695.4016664,-0.931578,-0.0015958863,-0.007007949,0.36347058,-0.33555827,0.11717907,-0.008522115,0.15682021,-0.12330139,9.603143
1742312695.4034245,-0.93157053,-0.0012283988,-0.007375221,0.36348405,-0.3227751,0.13741909,-0.006391586,0.15682021,-0.12330139,9.603143
1742312695.405552,-0.93157077,-0.001011896,-0.0076291803,0.3634788,-0.30892664,0.13528857,0.008522115,-0.06703765,-0.35075054,9.836577
1742312695.4074934,-0.93156636,-0.0007356482,-0.007888189,0.36348495,-0.3792341,0.13528857,-0.009587379,-0.06703765,-0.35075054,9.836577
1742312695.409268,-0.93156195,-0.00039666754,-0.008190672,0.36349028,-0.4538026,0.13848436,-0.009587379,-0.17118542,0.23104046,9.54209
